Folder: OSImageAnalysis/py3/yml/hyperspyPy35

Note: py3/yml/hyperspyPy35/set-up-hyperspy.txt
To get hyperspy on Win64


conda install -c https://conda.anaconda.org/rdonnelly m2-msys2-ncurses

Note: README
This repository is to hold test images and code to test and apply several Open Source image analysis packages. It is a "work in progress"

This code is released under the GPL 3.0. You are free to modify this and use it. Please report issues to jrminter@rochester.rr.com 

Constructive comments and suggestions are welcomed.

File: qm-04372-EDS-TM002-10kV.msa
#FORMAT      : EMSA/MAS Spectral Data File
#VERSION     : 1.0
#CHOFFSET    : 10.0
#OXINSTLABEL : 47, 2.634, Ag
#AZIMANGLE   : 0.0
#OFFSET      : -0.1
#OXINSTELEMS : 6,8,13,25,29,40,47
#ELEVANGLE   : 37.0
#XUNITS      : keV
#SIGNALTYPE  : EDS_SEM
#DATE        : 10-JAN-2011
#OWNER       :
#BEAMKV      : 10.0
#PROBECUR    : 0.0
#NCOLUMNS    : 1
#XPERCHAN    : 0.01
#REALTIME    : 39.5937
#COMMENT     : File created by HyperSpy version 0.8.4
#MAGCAM      : 236.0
#YPOSITION mm: 67.6363
#YUNITS      : counts
#XPOSITION mm: 45.7421
#TITLE       : BAM EDS-TM002 10 kV
#FWHMMNKA    : 130.0
#OXINSTSTROB : 48.23
#XTILTSTGE   : 0.0
#OXINSTPT    : 4
#TIME        : 11:18
#DATATYPE    : XY
#XLABEL      :
#LIVETIME    : 19.9973
#NPOINTS     : 1024
#ZPOSITION mm: 40.7000
#SPECTRUM    : Spectral Data Starts Here
-0.1, 0
-0.06, 2
-0.02, 205
0.02, 909
0.06, 342
0.1, 303
0.14, 847
0.18, 954
0.22, 2875
0.26, 12556
0.3, 7206
0.34, 917
0.38, 818
0.42, 982
0.46, 1331
0.5, 3100
0.54, 5574
0.58, 5391
0.62, 10623
0.66, 8667
0.7, 2318
0.74, 1469
0.78, 1596
0.82, 1973
0.86, 2192
0.9, 6686
0.94, 11352
0.98, 5136
1.02, 1788
1.06, 1414
1.1, 1400
1.14, 1408
1.18, 1519
1.22, 1444
1.26, 1477
1.3, 1431
1.34, 1435
1.38, 1491
1.42, 2334
1.46, 6595
1.5, 8806
1.54, 4069
1.58, 1712
1.62, 1345
1.66, 1238
1.7, 1250
1.74, 1441
1.78, 1618
1.82, 1542
1.86, 1372
1.9, 1294
1.94, 1389
1.98, 2761
2.02, 7011
2.06, 8384
2.1, 5961
2.14, 4418
2.18, 2683
2.22, 1717
2.26, 1253
2.3, 1055
2.34, 992
2.38, 932
2.42, 928
2.46, 874
2.5, 847
2.54, 864
2.58, 839
2.62, 793
2.66, 783
2.7, 781
2.74, 765
2.78, 733
2.82, 731
2.86, 742
2.9, 802
2.94, 1057
2.98, 1087
3.02, 814
3.06, 726
3.1, 657
3.14, 648
3.18, 670
3.22, 662
3.26, 641
3.3, 597
3.34, 590
3.38, 581
3.42, 617
3.46, 576
3.5, 566
3.54, 576
3.58, 566
3.62, 536
3.66, 540
3.7, 520
3.74, 512
3.78, 535
3.82, 465
3.86, 486
3.9, 463
3.94, 447
3.98, 453
4.02, 449
4.06, 439
4.1, 450
4.14, 475
4.18, 431
4.22, 436
4.26, 405
4.3, 400
4.34, 389
4.38, 404
4.42, 368
4.46, 360
4.5, 366
4.54, 343
4.58, 351
4.62, 362
4.66, 347
4.7, 321
4.74, 332
4.78, 309
4.82, 318
4.86, 318
4.9, 314
4.94, 312
4.98, 312
5.02, 279
5.06, 306
5.1, 297
5.14, 272
5.18, 289
5.22, 285
5.26, 243
5.3, 262
5.34, 232
5.38, 267
5.42, 274
5.46, 272
5.5, 259
5.54, 245
5.58, 247
5.62, 239
5.66, 244
5.7, 253
5.74, 307
5.78, 611
5.82, 1562
5.86, 2975
5.9, 3639
5.94, 2828
5.98, 1352
6.02, 495
6.06, 251
6.1, 236
6.14, 241
6.18, 235
6.22, 218
6.26, 198
6.3, 194
6.34, 230
6.38, 295
6.42, 395
6.46, 577
6.5, 623
6.54, 462
6.58, 290
6.62, 191
6.66, 149
6.7, 172
6.74, 157
6.78, 160
6.82, 155
6.86, 139
6.9, 161
6.94, 143
6.98, 134
7.02, 121
7.06, 129
7.1, 132
7.14, 119
7.18, 132
7.22, 134
7.26, 116
7.3, 136
7.34, 117
7.38, 126
7.42, 115
7.46, 112
7.5, 129
7.54, 102
7.58, 91
7.62, 112
7.66, 101
7.7, 94
7.74, 88
7.78, 93
7.82, 91
7.86, 108
7.9, 92
7.94, 115
7.98, 111
8.02, 154
8.06, 167
8.1, 124
8.14, 76
8.18, 76
8.22, 68
8.26, 76
8.3, 49
8.34, 69
8.38, 54
8.42, 58
8.46, 74
8.5, 69
8.54, 50
8.58, 60
8.62, 67
8.66, 50
8.7, 43
8.74, 49
8.78, 48
8.82, 53
8.86, 51
8.9, 49
8.94, 43
8.98, 44
9.02, 39
9.06, 42
9.1, 30
9.14, 37
9.18, 28
9.22, 16
9.26, 25
9.3, 24
9.34, 22
9.38, 22
9.42, 14
9.46, 26
9.5, 15
9.54, 27
9.58, 15
9.62, 14
9.66, 12
9.7, 15
9.74, 16
9.78, 11
9.82, 8
9.86, 7
9.9, 9
9.94, 3
9.98, 2
10.02, 5
10.06, 2
10.1, 5
10.13, 0
#ENDOFDATA   : End Of Data and File