Folder: OSImageAnalysis/hyperSpy/iPyNb3

Note: README
This repository is to hold test images and code to test and apply several Open Source image analysis packages. It is a "work in progress"

This code is released under the GPL 3.0. You are free to modify this and use it. Please report issues to jrminter@rochester.rr.com 

Constructive comments and suggestions are welcomed.

File: oxford.msa
#FORMAT      : EMSA/MAS Spectral Data File
#VERSION     : 1.0
#TITLE       : Map Sum Spectrum
#DATE        : 19-MAY-2011
#TIME        : 05:07
#OWNER       : Unknown
#NPOINTS     : 2048
#NCOLUMNS    : 1
#XUNITS      : eV
#YUNITS      : counts
#DATATYPE    : Y
#XPERCHAN    : 10
#OFFSET      : -200
#BEAMKV      : 20
#SIGNALTYPE  : EDS
#ELEVANGLE   : 35
#AZIMANGLE   : 0
#LIVETIME    : 14386.8
#REALTIME    : 26400.4
#PROBECUR    : 0
#CHOFFSET    : 0.0
#XLABEL      : Energy (eV)
#YLABEL      : Counts
#XPOSITION   : 46.0662
#YPOSITION   : 51.8563
#ZPOSITION   : 18.7728
#MAGCAM      : 441
#SPECTRUM    :
0,
0,
2552,
600406,
76843,
243755,
1624190,
5056811,
192134,
297760,
2514183,
919809,
303271,
352219,
298550,
309296,
348024,
385505,
415821,
438824,
643562,
1278584,
536856,
529030,
720216,
585772,
547055,
988741,
1910494,
1203002,
687481,
585139,
567218,
584743,
705454,
1161051,
7151462,
7746996,
5804136,
1159733,
626206,
754847,
436712,
354820,
357860,
363063,
385143,
428033,
377886,
331982,
318223,
313929,
313300,
322654,
383768,
1195856,
1614244,
485276,
304744,
340135,
463505,
387500,
291795,
285620,
284306,
299186,
648158,
2045383,
1488318,
394271,
308880,
338356,
386028,
504169,
431330,
274228,
254516,
252450,
239359,
234470,
233302,
232866,
232212,
225408,
221659,
221145,
218546,
214811,
213653,
210905,
207377,
206398,
205294,
210329,
228962,
218679,
197269,
191238,
189400,
187825,
186055,
187415,
185348,
183722,
180419,
175678,
173031,
171229,
171209,
168809,
164164,
162115,
159852,
158702,
156478,
154070,
152473,
150514,
148763,
147737,
147621,
144545,
141441,
139385,
138444,
137070,
135897,
134243,
132032,
130426,
129266,
129585,
131624,
141418,
149577,
137870,
123201,
118893,
117293,
114698,
113031,
111460,
109156,
108211,
106840,
105455,
103916,
103228,
101994,
101586,
109628,
154279,
306510,
537299,
514850,
256448,
121008,
96001,
90787,
87423,
85378,
83777,
82258,
81223,
81081,
80665,
78538,
75802,
74735,
73277,
71682,
70696,
69699,
68520,
68051,
69671,
71688,
71498,
70550,
68925,
70412,
99742,
183372,
235777,
174867,
97692,
71700,
67325,
67239,
63216,
54817,
48753,
46678,
45623,
44358,
43401,
42383,
41624,
40968,
40293,
39428,
38443,
38171,
37203,
36637,
36012,
35532,
34876,
34070,
33037,
32753,
33497,
37499,
43914,
43842,
37025,
32007,
31465,
31252,
31008,
29384,
26878,
24937,
23887,
23043,
22500,
22063,
21703,
21403,
20714,
19878,
19139,
18710,
18055,
17616,
17305,
16714,
16320,
15766,
15446,
15124,
14774,
14123,
13822,
13327,
12819,
12709,
12327,
12015,
11466,
11171,
10727,
10318,
9925,
9718,
9369,
9065,
8623,
8275,
7887,
7558,
7328,
7021,
6685,
6485,
6211,
5876,
5612,
5378,
5107,
4866,
4458,
4367,
4209,
3919,
3617,
3425,
3103,
3039,
2771,
2542,
2351,
2149,
1962,
1810,
1619,
1434,
1240,
1055,
1021,
895,
922,
874,
867,
#ENDOFDATA   :