Folder: OSImageAnalysis/dtsa2/DemoSpectra/Benitoite

Note: README
This repository is to hold test images and code to test and apply several Open Source image analysis packages. It is a "work in progress"

This code is released under the GPL 3.0. You are free to modify this and use it. Please report issues to jrminter@rochester.rr.com 

Constructive comments and suggestions are welcomed.

File: Al2O3 std.msa
#FORMAT      : EMSA/MAS Spectral Data File
#VERSION     : 1.0
#TITLE       : Bruker AXS spectrum Al2O3
#DATE        : 29-JUL-2008
#TIME        : 10:44
#OWNER       : Bruker AXS
#NPOINTS     : 4096
#NCOLUMNS    : 4
#XUNITS      : eV
#YUNITS      : counts
#DATATYPE    : Y
#XPERCHAN    : 5.00409
#OFFSET      : -477.824
#BEAMKV      : 15
#SIGNALTYPE  : EDS
#ELEVANGLE   : 40
#AZIMANGLE   : 180
#LIVETIME    : 59.359
#REALTIME    : 63.694
#PROBECUR    : 2.5
#TAUWIND     : 0
#TDEADLYR    : 0.00001
#TACTLYR     : 0.045
#TALWIND     : 0.003
#CHOFFSET    : 0.0
#XLABEL      : Energy (eV)
#YLABEL      : Counts
#EDSDET      : SDDUTW
##D2STDCMP   : Al2O3,(O:47.0749),(Al:52.9251),5.0
#SPECTRUM    :
0, 0, 0, 0,
0, 0, 0, 0,
0, 0, 0, 0,
0, 0, 0, 0,
0, 0, 0, 0,
1, 2, 15, 76,
135594, 117045, 90228, 63146,
9, 34, 63, 83,
63, 63, 66, 72,
255, 298, 350, 410,
143, 131, 141, 144,
281, 287, 322, 351,
7888, 10566, 13596, 17129,
5265, 3565, 2010, 1246,
182, 178, 207, 193,
282, 255, 269, 271,
341, 293, 363, 294,
387, 433, 386, 383,
450, 412, 431, 448,
478, 524, 508, 468,
502, 532, 494, 521,
573, 587, 623, 597,
668, 684, 723, 704,
861, 959, 930, 982,
18872, 24031, 30273, 36301,
34375, 28262, 22931, 18321,
873, 728, 629, 459,
270, 253, 261, 266,
285, 286, 268, 285,
301, 275, 303, 263,
266, 268, 284, 284,
326, 324, 313, 321,
254, 259, 261, 251,
259, 299, 275, 242,
222, 241, 233, 264,
260, 233, 222, 232,
225, 246, 245, 253,
261, 221, 247, 225,
248, 235, 245, 243,
223, 239, 263, 213,
250, 218, 216, 260,
227, 228, 222, 221,
214, 203, 224, 218,
271, 283, 261, 262,
212, 230, 223, 220,
210, 215, 186, 210,
180, 197, 195, 212,
211, 187, 186, 198,
184, 172, 185, 181,
159, 148, 183, 172,
170, 175, 194, 186,
168, 167, 171, 179,
161, 180, 180, 185,
170, 197, 148, 168,
175, 165, 126, 141,
138, 133, 153, 167,
148, 149, 149, 148,
144, 122, 138, 157,
115, 154, 136, 129,
148, 143, 123, 148,
142, 122, 100, 126,
115, 131, 152, 121,
124, 127, 127, 128,
128, 101, 142, 105,
121, 103, 117, 134,
114, 95, 125, 97,
127, 93, 94, 120,
93, 105, 97, 115,
110, 103, 107, 119,
113, 95, 113, 79,
97, 114, 102, 96,
105, 124, 92, 93,
89, 98, 109, 103,
96, 80, 94, 98,
88, 93, 83, 80,
87, 80, 75, 83,
93, 69, 90, 87,
79, 104, 67, 82,
60, 87, 77, 81,
74, 87, 74, 69,
61, 85, 79, 88,
62, 85, 55, 75,
83, 74, 68, 71,
73, 70, 70, 91,
63, 69, 65, 67,
65, 71, 71, 62,
75, 60, 72, 71,
63, 62, 70, 62,
54, 64, 61, 58,
77, 61, 60, 54,
60, 59, 59, 50,
54, 55, 47, 67,
51, 55, 51, 68,
51, 51, 49, 52,
43, 53, 56, 38,
50, 57, 56, 61,
70, 45, 44, 47,
46, 50, 45, 51,
43, 44, 54, 56,
46, 53, 35, 44,
51, 50, 40, 40,
40, 46, 38, 46,
24, 42, 38, 55,
43, 54, 51, 45,
54, 42, 40, 34,
42, 47, 38, 47,
48, 51, 38, 43,
43, 32, 34, 37,
36, 40, 42, 37,
36, 35, 39, 43,
41, 29, 39, 30,
44, 35, 28, 34,
31, 39, 32, 35,
41, 39, 38, 33,
34, 28, 45, 27,
35, 29, 39, 30,
33, 31, 29, 27,
36, 29, 26, 26,
29, 27, 26, 29,
20, 24, 38, 33,
28, 26, 31, 26,
29, 24, 25, 26,
29, 32, 26, 34,
24, 17, 34, 29,
25, 23, 24, 23,
24, 25, 25, 23,
18, 17, 22, 18,
20, 23, 28, 29,
21, 23, 25, 21,
17, 30, 15, 18,
25, 22, 23, 20,
22, 18, 18, 17,
22, 17, 20, 13,
19, 14, 15, 17,
21, 20, 15, 17,
16, 18, 16, 18,
13, 23, 21, 21,
28, 16, 19, 23,
14, 15, 10, 13,
16, 15, 17, 16,
13, 18, 12, 15,
10, 23, 20, 9,
22, 21, 21, 15,
10, 18, 10, 10,
11, 13, 14, 10,
15, 14, 6, 16,
13, 13, 11, 10,
14, 10, 14, 13,
13, 6, 12, 11,
6, 14, 6, 8,
8, 9, 10, 9,
10, 16, 10, 17,
16, 9, 13, 10,
8, 10, 20, 8,
11, 7, 12, 8,
10, 7, 5, 7,
7, 13, 8, 13,
10, 7, 1, 6,
9, 4, 7, 12,
6, 8, 6, 4,
3, 4, 9, 7,
4, 5, 4, 6,
9, 7, 7, 8,
7, 3, 5, 4,
9, 3, 6, 5,
4, 3, 0, 5,
3, 5, 4, 6,
9, 3, 6, 7,
4, 4, 7, 4,
8, 7, 5, 4,
6, 4, 6, 4,
2, 0, 2, 5,
3, 5, 5, 5,
5, 3, 2, 6,
3, 5, 2, 3,
4, 4, 1, 4,
3, 3, 4, 3,
3, 1, 4, 2,
2, 3, 1, 2,
1, 4, 0, 4,
1, 2, 2, 4,
2, 1, 0, 3,
1, 4, 2, 1,
2, 1, 2, 1,
0, 1, 0, 0,
0, 4, 0, 1,
1, 0, 1, 0,
0, 0, 2, 1,
0, 1, 0, 1,
2, 1, 4, 0,
0, 0, 1, 0,
0, 1, 0, 1,
0, 0, 0, 0,
0, 0, 0, 0,
0, 0, 0, 0,
0, 0, 0, 0,
0, 0, 0, 0,
0, 0, 0, 0,
0, 0, 0, 0,
0, 0, 0, 0,
0, 0, 0, 0,
0, 0, 0, 0,
0, 0, 0, 0,
0, 0, 0, 0,
0, 0, 0, 0,
0, 0, 0, 0,
0, 0, 0, 0,
0, 0, 0, 0,
0, 0, 0, 0,
0, 0, 0, 0,
0, 0, 0, 0,
0, 0, 0, 0,
0, 0, 0, 0,
0, 0, 0, 0,
0, 0, 0, 0,
0, 0, 0, 0,
0, 0, 0, 0,
0, 0, 0, 0,
0, 0, 0, 0,
0, 1, 0, 0,
0, 0, 0, 0,
0, 0, 0, 0,
0, 0, 0, 0,
0, 0, 0, 0,
0, 0, 0, 0,
0, 0, 0, 0,
0, 0, 0, 0,
0, 0, 0, 0,
0, 0, 0, 0,
0, 0, 0, 0,
0, 0, 0, 0,
0, 0, 0, 0,
0, 0, 0, 0,
0, 0, 0, 0,
0, 0, 0, 0,
0, 0, 0, 0,
0, 0, 0, 0,
0, 0, 0, 0,
0, 0, 0, 0,
0, 0, 0, 0,
0, 0, 0, 0,
0, 0, 0, 0,
0, 0, 0, 0,
0, 0, 0, 0,
0, 0, 0, 0,
0, 0, 0, 0,
0, 0, 0, 0,
0, 0, 0, 0,
0, 0, 0, 0,
0, 0, 0, 0,
0, 0, 0, 0,
0, 0, 0, 0,
0, 0, 0, 0,
0, 0, 0, 0,
0, 0, 0, 0,
0, 0, 0, 0,
0, 0, 0, 0,
#ENDOFDATA   :

File: BaF2 std.msa
#FORMAT      : EMSA/MAS Spectral Data File
#VERSION     : 1.0
#TITLE       : Bruker AXS spectrum BaF2
#DATE        : 29-JUL-2008
#TIME        : 10:31
#OWNER       : Bruker AXS
#NPOINTS     : 4096
#NCOLUMNS    : 4
#XUNITS      : eV
#YUNITS      : counts
#DATATYPE    : Y
#XPERCHAN    : 5.00409
#OFFSET      : -477.824
#BEAMKV      : 15
#SIGNALTYPE  : EDS
#ELEVANGLE   : 40
#AZIMANGLE   : 180
#LIVETIME    : 59.362
#REALTIME    : 63.784
#PROBECUR    : 2.5
#TAUWIND     : 0
#TDEADLYR    : 0.00001
#TACTLYR     : 0.045
#TALWIND     : 0.003
#CHOFFSET    : 0.0
#XLABEL      : Energy (eV)
#YLABEL      : Counts
#EDSDET      : SDDUTW
##D2STDCMP   : BaF2,(F:21.672),(Ba:78.328),5.0
#SPECTRUM    :
0, 0, 0, 0,
0, 0, 0, 0,
0, 0, 0, 0,
0, 0, 0, 0,
0, 0, 0, 0,
2, 1, 17, 65,
135068, 116436, 90054, 63254,
21, 70, 123, 160,
412, 451, 486, 513,
1354, 1529, 1695, 1848,
477, 453, 463, 443,
579, 600, 610, 592,
965, 1059, 1111, 1157,
2729, 3266, 3476, 3945,
11172, 13546, 16160, 18895,
4585, 3331, 2531, 2044,
1575, 1474, 1289, 1147,
568, 588, 525, 526,
1001, 1071, 960, 974,
863, 882, 927, 903,
623, 584, 598, 623,
567, 574, 567, 594,
678, 646, 637, 667,
664, 660, 672, 669,
647, 728, 717, 730,
739, 710, 755, 727,
677, 707, 691, 687,
717, 713, 794, 751,
797, 815, 799, 793,
796, 876, 811, 781,
760, 736, 740, 741,
732, 761, 716, 779,
724, 723, 718, 725,
710, 741, 740, 720,
774, 727, 756, 753,
750, 701, 705, 704,
750, 689, 723, 740,
702, 738, 751, 663,
720, 767, 702, 761,
790, 763, 744, 736,
651, 704, 692, 706,
711, 694, 632, 674,
641, 677, 676, 659,
642, 638, 657, 645,
598, 639, 620, 629,
597, 623, 598, 658,
610, 619, 580, 607,
571, 629, 581, 610,
616, 584, 579, 596,
584, 597, 599, 563,
567, 547, 583, 545,
555, 569, 505, 505,
541, 568, 547, 544,
528, 606, 572, 557,
557, 541, 543, 568,
780, 818, 807, 790,
738, 715, 697, 716,
538, 513, 509, 483,
496, 489, 464, 487,
520, 532, 516, 563,
709, 705, 795, 791,
4053, 4589, 5195, 5724,
9653, 9167, 8867, 8374,
1828, 1480, 1310, 1108,
466, 494, 467, 462,
777, 832, 1003, 1079,
3936, 4250, 4355, 4657,
3452, 3247, 2987, 2786,
1252, 1102, 1049, 1014,
630, 637, 604, 634,
1514, 1585, 1645, 1757,
1446, 1384, 1221, 1148,
417, 396, 384, 354,
335, 351, 362, 310,
426, 475, 479, 512,
878, 850, 881, 886,
512, 510, 463, 495,
330, 292, 289, 332,
438, 489, 436, 493,
390, 399, 429, 408,
299, 328, 295, 302,
274, 270, 288, 258,
244, 230, 259, 290,
259, 222, 241, 219,
253, 245, 267, 255,
244, 239, 239, 240,
264, 268, 232, 244,
264, 222, 238, 217,
237, 226, 229, 221,
230, 224, 222, 212,
230, 227, 246, 210,
234, 186, 236, 216,
192, 211, 203, 232,
204, 220, 202, 212,
212, 206, 203, 215,
186, 189, 218, 210,
220, 185, 188, 187,
194, 193, 231, 200,
207, 201, 202, 191,
213, 192, 209, 212,
175, 184, 217, 190,
171, 173, 192, 187,
182, 177, 180, 200,
178, 178, 166, 169,
178, 195, 190, 144,
185, 169, 160, 146,
156, 157, 179, 161,
141, 158, 192, 154,
147, 150, 155, 141,
168, 157, 161, 164,
149, 148, 169, 164,
172, 150, 176, 172,
164, 148, 161, 164,
153, 154, 134, 151,
160, 159, 137, 150,
129, 149, 139, 127,
130, 145, 152, 130,
126, 150, 138, 152,
124, 133, 130, 136,
136, 150, 132, 125,
124, 127, 117, 127,
136, 128, 127, 143,
134, 140, 144, 131,
120, 127, 121, 140,
122, 131, 115, 118,
114, 119, 102, 119,
106, 130, 120, 119,
120, 100, 96, 104,
110, 128, 96, 97,
93, 101, 114, 110,
96, 87, 99, 114,
104, 95, 92, 122,
98, 83, 98, 93,
92, 97, 88, 105,
88, 94, 90, 121,
93, 101, 87, 109,
59, 95, 100, 103,
87, 78, 92, 95,
86, 91, 79, 73,
86, 83, 83, 90,
81, 84, 80, 96,
73, 84, 90, 73,
67, 71, 73, 91,
74, 70, 82, 78,
88, 88, 77, 71,
67, 63, 69, 65,
65, 59, 67, 66,
70, 61, 77, 68,
77, 71, 66, 60,
56, 60, 53, 58,
67, 61, 58, 51,
68, 57, 63, 50,
51, 57, 66, 42,
60, 58, 54, 65,
65, 44, 58, 58,
54, 48, 53, 57,
50, 53, 55, 60,
46, 56, 47, 35,
44, 44, 36, 61,
33, 43, 38, 53,
58, 43, 48, 32,
40, 38, 42, 38,
36, 34, 44, 37,
35, 34, 34, 28,
45, 25, 36, 40,
42, 38, 35, 33,
26, 30, 31, 41,
35, 37, 35, 27,
21, 27, 26, 32,
24, 30, 34, 30,
21, 32, 30, 18,
26, 31, 21, 30,
25, 26, 24, 28,
18, 18, 15, 26,
23, 23, 24, 21,
18, 22, 16, 17,
26, 10, 24, 19,
21, 20, 12, 16,
32, 24, 13, 19,
16, 20, 21, 16,
18, 22, 16, 19,
13, 18, 17, 16,
16, 16, 9, 10,
12, 11, 11, 8,
7, 12, 12, 9,
10, 13, 8, 12,
7, 9, 8, 4,
2, 7, 9, 7,
6, 7, 6, 3,
4, 3, 4, 2,
3, 5, 5, 3,
2, 3, 3, 1,
2, 4, 4, 2,
3, 3, 0, 1,
0, 1, 1, 1,
0, 0, 0, 0,
0, 0, 0, 0,
0, 0, 0, 0,
0, 0, 0, 0,
1, 1, 0, 0,
0, 0, 0, 0,
0, 0, 0, 0,
0, 0, 0, 0,
0, 0, 0, 0,
0, 0, 0, 0,
0, 2, 0, 0,
0, 0, 0, 0,
0, 0, 0, 1,
1, 1, 0, 0,
0, 0, 0, 0,
0, 0, 0, 0,
0, 0, 0, 0,
0, 0, 0, 0,
0, 0, 0, 0,
0, 0, 0, 0,
0, 0, 1, 0,
0, 1, 0, 0,
0, 0, 0, 0,
0, 0, 0, 1,
0, 0, 0, 0,
0, 0, 0, 1,
0, 0, 0, 0,
0, 0, 0, 0,
0, 0, 0, 0,
0, 0, 0, 0,
0, 0, 0, 0,
0, 0, 0, 0,
0, 0, 0, 0,
0, 0, 0, 0,
0, 0, 0, 0,
0, 1, 0, 0,
0, 0, 0, 0,
0, 0, 0, 0,
0, 0, 0, 0,
0, 0, 0, 0,
0, 0, 0, 0,
0, 0, 1, 0,
0, 0, 0, 0,
0, 0, 0, 0,
0, 0, 0, 0,
0, 0, 0, 1,
0, 0, 0, 0,
0, 0, 0, 0,
0, 0, 0, 0,
0, 0, 0, 0,
0, 0, 0, 0,
0, 0, 0, 0,
0, 0, 0, 0,
0, 0, 0, 0,
0, 0, 0, 0,
0, 0, 0, 0,
0, 0, 0, 0,
0, 0, 0, 0,
0, 0, 0, 0,
0, 0, 0, 0,
0, 0, 0, 0,
0, 0, 0, 0,
#ENDOFDATA   :

File: Benitoite std.msa
#FORMAT      : EMSA/MAS Spectral Data File
#VERSION     : 1.0
#TITLE       : Bruker AXS spectrum Benitoite
#DATE        : 29-JUL-2008
#TIME        : 11:14
#OWNER       : Bruker AXS
#NPOINTS     : 4096
#NCOLUMNS    : 4
#XUNITS      : eV
#YUNITS      : counts
#DATATYPE    : Y
#XPERCHAN    : 5.00409
#OFFSET      : -477.824
#BEAMKV      : 15
#SIGNALTYPE  : EDS
#ELEVANGLE   : 40
#AZIMANGLE   : 180
#LIVETIME    : 59.351
#REALTIME    : 63.186
#PROBECUR    : 2.5
#TAUWIND     : 0
#TDEADLYR    : 0.00001
#TACTLYR     : 0.045
#TALWIND     : 0.003
#CHOFFSET    : 0.0
#XLABEL      : Energy (eV)
#YLABEL      : Counts
#EDSDET      : SDDUTW
##D2STDCMP   : Benitoite,(O:34.828),(Si:20.3791),(Ti:11.5776),(Ba:33.2153),5.0
#SPECTRUM    :
0, 0, 0, 0,
0, 0, 0, 0,
0, 0, 0, 0,
0, 0, 0, 0,
0, 0, 0, 0,
0, 4, 17, 52,
106102, 91570, 70671, 49931,
8, 33, 61, 80,
99, 104, 108, 113,
405, 468, 528, 590,
233, 242, 257, 277,
864, 874, 866, 881,
5023, 6619, 8424, 10694,
3542, 2566, 1655, 1239,
367, 354, 330, 341,
409, 461, 459, 548,
812, 780, 731, 699,
440, 470, 452, 417,
690, 701, 721, 619,
661, 654, 721, 699,
522, 497, 565, 555,
547, 580, 590, 544,
510, 588, 573, 556,
576, 563, 617, 614,
604, 622, 595, 653,
631, 674, 651, 698,
654, 628, 637, 645,
3718, 4656, 5901, 7298,
15545, 13787, 12214, 10328,
1334, 1198, 1209, 1069,
492, 454, 490, 485,
469, 514, 459, 510,
513, 471, 492, 491,
470, 460, 448, 482,
470, 450, 505, 466,
475, 478, 473, 447,
469, 439, 488, 435,
489, 466, 422, 458,
409, 451, 435, 416,
415, 440, 422, 445,
458, 429, 433, 399,
431, 423, 416, 396,
416, 418, 456, 409,
378, 423, 367, 416,
402, 376, 381, 370,
386, 374, 379, 375,
370, 367, 402, 406,
366, 351, 352, 354,
345, 345, 342, 319,
320, 353, 384, 385,
349, 341, 340, 348,
330, 322, 305, 333,
319, 309, 289, 363,
326, 320, 332, 306,
313, 306, 336, 334,
358, 406, 424, 429,
358, 415, 339, 374,
315, 293, 297, 331,
260, 277, 296, 291,
270, 282, 324, 312,
391, 353, 393, 439,
1846, 2103, 2347, 2674,
6239, 6374, 6166, 6108,
2433, 2154, 1927, 1696,
315, 308, 335, 294,
382, 416, 453, 470,
1583, 1581, 1635, 1751,
1628, 1514, 1453, 1449,
885, 809, 741, 732,
338, 327, 303, 295,
593, 674, 652, 695,
532, 581, 496, 506,
232, 218, 199, 247,
182, 193, 194, 174,
227, 221, 238, 280,
352, 364, 395, 389,
272, 228, 218, 189,
201, 180, 178, 200,
243, 220, 224, 252,
197, 208, 185, 204,
164, 169, 187, 166,
156, 170, 153, 165,
141, 156, 127, 183,
134, 150, 133, 149,
151, 149, 153, 138,
148, 121, 133, 135,
142, 129, 142, 153,
144, 134, 128, 137,
115, 143, 136, 122,
147, 130, 133, 119,
135, 121, 120, 143,
132, 121, 133, 110,
130, 114, 114, 134,
117, 103, 105, 123,
110, 109, 98, 122,
115, 119, 107, 139,
108, 113, 105, 112,
116, 107, 109, 103,
120, 87, 123, 108,
117, 98, 108, 129,
81, 109, 102, 89,
93, 84, 100, 101,
120, 94, 99, 109,
106, 100, 97, 102,
78, 93, 97, 113,
93, 94, 98, 111,
78, 101, 77, 118,
81, 91, 88, 82,
107, 103, 96, 94,
78, 91, 93, 96,
83, 79, 81, 71,
95, 81, 74, 81,
84, 76, 93, 80,
70, 75, 82, 75,
79, 69, 73, 90,
65, 63, 70, 63,
76, 85, 61, 58,
88, 84, 65, 75,
70, 61, 71, 59,
76, 65, 63, 73,
65, 49, 64, 63,
78, 58, 63, 58,
58, 47, 64, 62,
75, 66, 58, 66,
61, 54, 59, 70,
59, 61, 62, 61,
55, 40, 48, 46,
63, 51, 61, 60,
52, 49, 61, 51,
42, 63, 63, 46,
72, 58, 51, 59,
50, 41, 42, 53,
64, 61, 64, 49,
48, 47, 58, 44,
63, 45, 48, 52,
40, 46, 38, 42,
44, 44, 52, 46,
51, 42, 42, 48,
43, 42, 48, 45,
47, 36, 38, 45,
38, 41, 40, 51,
45, 42, 39, 32,
38, 37, 36, 38,
31, 38, 32, 49,
27, 35, 24, 53,
41, 37, 30, 34,
40, 38, 39, 38,
41, 36, 39, 30,
25, 32, 28, 31,
34, 26, 21, 34,
32, 40, 18, 27,
34, 28, 29, 31,
44, 32, 28, 20,
21, 21, 25, 23,
28, 21, 29, 27,
31, 28, 30, 24,
25, 29, 32, 22,
31, 27, 20, 21,
28, 19, 16, 14,
22, 23, 20, 13,
25, 17, 22, 15,
24, 18, 18, 21,
27, 24, 20, 18,
14, 23, 20, 17,
13, 14, 18, 9,
21, 17, 12, 15,
17, 21, 17, 11,
17, 17, 23, 9,
15, 11, 6, 16,
12, 16, 13, 14,
15, 12, 9, 11,
6, 11, 16, 10,
8, 11, 15, 12,
11, 11, 5, 15,
8, 18, 6, 12,
18, 7, 5, 10,
9, 12, 7, 10,
8, 8, 6, 12,
9, 7, 2, 6,
13, 10, 6, 8,
4, 5, 10, 11,
10, 5, 6, 6,
12, 8, 6, 4,
7, 8, 5, 5,
8, 10, 4, 7,
6, 3, 2, 1,
5, 3, 6, 8,
4, 3, 4, 4,
1, 0, 2, 1,
0, 1, 1, 2,
3, 3, 0, 2,
3, 0, 0, 1,
2, 1, 0, 0,
0, 0, 1, 1,
0, 0, 0, 0,
0, 0, 0, 0,
0, 0, 0, 0,
0, 0, 0, 0,
0, 0, 0, 0,
0, 0, 0, 0,
0, 0, 0, 0,
0, 0, 0, 0,
0, 0, 0, 0,
0, 0, 0, 0,
0, 0, 0, 0,
0, 0, 0, 0,
0, 0, 0, 0,
0, 0, 0, 0,
0, 0, 0, 0,
0, 0, 0, 0,
0, 0, 0, 0,
0, 0, 0, 0,
0, 0, 0, 0,
0, 0, 0, 0,
0, 1, 0, 0,
0, 0, 0, 0,
0, 0, 0, 0,
0, 0, 0, 0,
0, 0, 0, 0,
0, 0, 0, 0,
0, 0, 0, 0,
0, 0, 0, 0,
0, 0, 0, 0,
0, 0, 0, 0,
0, 0, 0, 0,
0, 0, 0, 0,
0, 0, 0, 0,
0, 0, 0, 0,
0, 0, 0, 0,
0, 0, 0, 0,
0, 0, 0, 0,
0, 0, 0, 0,
0, 0, 0, 0,
0, 0, 0, 0,
0, 0, 0, 0,
0, 0, 0, 0,
0, 0, 0, 0,
0, 0, 0, 0,
0, 0, 0, 0,
0, 0, 0, 0,
0, 0, 0, 0,
0, 0, 0, 0,
0, 0, 0, 0,
0, 0, 0, 0,
0, 0, 0, 0,
0, 0, 0, 0,
0, 0, 0, 0,
0, 0, 0, 0,
0, 0, 0, 0,
0, 0, 0, 0,
0, 0, 0, 0,
0, 0, 0, 0,
0, 0, 0, 0,
0, 0, 0, 0,
0, 0, 0, 0,
0, 0, 0, 0,
0, 0, 0, 0,
#ENDOFDATA   :

File: Si std.msa
#FORMAT      : EMSA/MAS Spectral Data File
#VERSION     : 1.0
#TITLE       : Bruker AXS spectrum Si
#DATE        : 29-JUL-2008
#TIME        : 10:06
#OWNER       : Bruker AXS
#NPOINTS     : 4096
#NCOLUMNS    : 4
#XUNITS      : eV
#YUNITS      : counts
#DATATYPE    : Y
#XPERCHAN    : 5.00409
#OFFSET      : -477.824
#BEAMKV      : 15
#SIGNALTYPE  : EDS
#ELEVANGLE   : 40
#AZIMANGLE   : 180
#LIVETIME    : 59.35
#REALTIME    : 65.123
#PROBECUR    : 2.5
#TAUWIND     : 0
#TDEADLYR    : 0.00001
#TACTLYR     : 0.045
#TALWIND     : 0.003
#CHOFFSET    : 0.0
#XLABEL      : Energy (eV)
#YLABEL      : Counts
#EDSDET      : SDDUTW
##D2STDCMP   : Si,(Si:100.0),2.95
#SPECTRUM    :
0, 0, 0, 0,
0, 0, 0, 0,
0, 0, 0, 0,
0, 0, 0, 0,
0, 0, 0, 0,
2, 10, 25, 96,
248320, 214582, 165941, 116003,
172, 346, 528, 643,
96, 87, 81, 74,
177, 203, 224, 248,
109, 100, 118, 111,
162, 173, 181, 176,
343, 339, 312, 371,
322, 354, 343, 322,
513, 470, 515, 502,
665, 612, 621, 613,
754, 732, 722, 736,
831, 779, 748, 787,
815, 815, 841, 812,
827, 863, 889, 895,
840, 836, 827, 876,
883, 884, 882, 838,
830, 852, 861, 846,
896, 898, 911, 840,
958, 965, 1000, 1077,
1131, 1116, 1159, 1118,
1150, 1161, 1188, 1227,
21380, 28366, 36606, 46113,
95461, 84931, 74118, 63366,
5901, 5511, 4900, 4380,
463, 365, 339, 316,
249, 248, 278, 250,
262, 271, 234, 292,
258, 278, 265, 257,
271, 243, 261, 248,
240, 280, 289, 270,
271, 263, 284, 265,
287, 297, 266, 263,
261, 264, 257, 243,
231, 250, 275, 253,
289, 254, 238, 249,
244, 253, 266, 290,
241, 298, 261, 238,
221, 245, 252, 221,
238, 243, 226, 242,
237, 260, 243, 291,
284, 260, 261, 247,
221, 253, 251, 223,
246, 220, 211, 255,
332, 362, 363, 370,
321, 299, 307, 277,
218, 203, 234, 219,
205, 197, 211, 206,
210, 178, 213, 201,
204, 207, 174, 190,
183, 183, 192, 182,
186, 199, 183, 209,
176, 183, 178, 198,
164, 179, 189, 171,
175, 163, 187, 181,
175, 173, 161, 184,
152, 176, 168, 191,
145, 154, 171, 150,
175, 165, 145, 158,
161, 161, 172, 159,
133, 165, 136, 158,
125, 155, 156, 168,
159, 160, 110, 145,
141, 132, 148, 123,
143, 124, 110, 136,
141, 131, 163, 127,
122, 106, 123, 131,
145, 129, 115, 112,
137, 132, 120, 122,
120, 121, 113, 123,
120, 128, 115, 113,
113, 110, 119, 139,
110, 106, 108, 111,
116, 125, 123, 105,
105, 89, 114, 113,
92, 105, 93, 102,
116, 102, 80, 91,
93, 99, 88, 95,
81, 89, 87, 101,
94, 102, 99, 93,
88, 87, 82, 79,
102, 93, 100, 81,
104, 80, 94, 79,
94, 81, 89, 70,
72, 80, 88, 69,
75, 75, 86, 85,
91, 67, 76, 75,
78, 92, 90, 80,
99, 61, 65, 78,
83, 64, 80, 73,
77, 74, 69, 65,
72, 83, 67, 70,
73, 70, 74, 63,
65, 63, 73, 76,
75, 60, 56, 78,
57, 74, 67, 69,
62, 59, 64, 55,
54, 57, 64, 60,
44, 61, 58, 55,
58, 59, 60, 62,
55, 54, 36, 52,
71, 64, 61, 50,
70, 41, 43, 60,
58, 44, 64, 57,
55, 68, 52, 49,
38, 59, 61, 43,
53, 52, 47, 56,
46, 45, 45, 46,
44, 40, 51, 43,
47, 52, 57, 45,
50, 40, 50, 39,
54, 44, 46, 45,
34, 46, 47, 35,
41, 53, 41, 39,
44, 49, 26, 48,
38, 38, 48, 42,
36, 37, 36, 27,
43, 39, 42, 32,
35, 31, 42, 40,
33, 42, 24, 34,
27, 26, 44, 29,
35, 36, 32, 34,
32, 36, 30, 40,
34, 22, 22, 30,
29, 18, 36, 26,
30, 28, 32, 22,
31, 32, 26, 38,
31, 30, 34, 37,
24, 33, 30, 36,
25, 19, 22, 31,
24, 22, 28, 27,
25, 34, 36, 28,
19, 25, 31, 21,
18, 32, 27, 15,
17, 17, 25, 22,
23, 22, 24, 20,
25, 23, 18, 17,
19, 33, 20, 21,
18, 17, 19, 23,
23, 23, 25, 19,
29, 18, 17, 16,
26, 17, 15, 18,
21, 17, 14, 23,
16, 12, 17, 20,
18, 20, 15, 21,
13, 17, 17, 13,
20, 16, 9, 12,
7, 12, 16, 18,
8, 12, 17, 13,
18, 17, 16, 16,
9, 11, 13, 13,
9, 10, 12, 16,
16, 11, 9, 12,
12, 10, 6, 12,
17, 16, 10, 11,
8, 12, 11, 12,
7, 9, 10, 7,
10, 16, 9, 13,
5, 14, 12, 4,
6, 8, 10, 8,
8, 9, 8, 10,
7, 12, 7, 6,
6, 4, 11, 9,
8, 12, 5, 11,
6, 3, 4, 3,
6, 11, 6, 8,
9, 7, 9, 9,
7, 7, 7, 9,
4, 7, 3, 6,
8, 3, 3, 3,
6, 2, 4, 6,
8, 7, 4, 3,
2, 2, 4, 3,
3, 6, 1, 5,
3, 4, 5, 5,
4, 2, 3, 1,
4, 3, 3, 2,
1, 2, 2, 7,
5, 3, 2, 3,
0, 2, 1, 4,
2, 1, 1, 2,
1, 3, 2, 1,
2, 1, 2, 0,
1, 1, 3, 1,
1, 1, 2, 1,
1, 1, 0, 1,
1, 0, 0, 1,
1, 0, 0, 0,
0, 0, 0, 0,
0, 0, 0, 0,
0, 0, 0, 0,
0, 0, 0, 0,
0, 0, 0, 0,
0, 0, 0, 0,
0, 0, 0, 0,
0, 0, 0, 0,
0, 0, 0, 0,
0, 0, 0, 0,
0, 0, 0, 0,
0, 0, 0, 0,
0, 0, 0, 0,
0, 0, 0, 0,
0, 0, 0, 0,
0, 0, 0, 0,
0, 0, 0, 0,
0, 0, 0, 0,
0, 0, 0, 0,
0, 0, 0, 0,
0, 0, 0, 0,
0, 0, 0, 0,
0, 0, 0, 0,
0, 0, 0, 0,
0, 0, 0, 0,
0, 0, 0, 0,
0, 0, 0, 0,
0, 0, 0, 0,
0, 0, 0, 0,
0, 0, 0, 0,
0, 0, 0, 0,
0, 0, 0, 0,
0, 0, 0, 0,
0, 0, 0, 0,
0, 0, 0, 0,
0, 0, 0, 0,
0, 0, 0, 0,
0, 0, 0, 0,
0, 0, 0, 0,
0, 0, 0, 0,
0, 0, 0, 0,
0, 0, 0, 0,
0, 0, 0, 0,
0, 0, 0, 0,
0, 0, 0, 0,
0, 0, 0, 0,
0, 0, 0, 0,
0, 0, 0, 0,
0, 0, 0, 0,
0, 0, 0, 0,
0, 0, 0, 0,
0, 0, 0, 0,
0, 0, 0, 0,
0, 0, 0, 0,
0, 0, 0, 0,
0, 0, 0, 0,
0, 0, 0, 0,
0, 0, 0, 0,
0, 0, 0, 0,
0, 0, 0, 0,
0, 0, 0, 0,
0, 0, 0, 0,
0, 0, 0, 0,
0, 0, 0, 0,
#ENDOFDATA   :

File: Ti std.msa
#FORMAT      : EMSA/MAS Spectral Data File
#VERSION     : 1.0
#TITLE       : Bruker AXS spectrum Ti
#DATE        : 29-JUL-2008
#TIME        : 10:24
#OWNER       : Bruker AXS
#NPOINTS     : 4096
#NCOLUMNS    : 4
#XUNITS      : eV
#YUNITS      : counts
#DATATYPE    : Y
#XPERCHAN    : 5.00409
#OFFSET      : -477.824
#BEAMKV      : 15
#SIGNALTYPE  : EDS
#ELEVANGLE   : 40
#AZIMANGLE   : 180
#LIVETIME    : 59.352
#REALTIME    : 63.428
#PROBECUR    : 2.5
#TAUWIND     : 0
#TDEADLYR    : 0.00001
#TACTLYR     : 0.045
#TALWIND     : 0.003
#CHOFFSET    : 0.0
#XLABEL      : Energy (eV)
#YLABEL      : Counts
#EDSDET      : SDDUTW
##D2STDCMP   : Ti,(Ti:100.0),5.0
#SPECTRUM    :
0, 0, 0, 0,
0, 0, 0, 0,
0, 0, 0, 0,
0, 0, 0, 0,
0, 0, 0, 0,
0, 3, 22, 57,
129050, 111689, 86348, 60512,
0, 1, 25, 42,
103, 109, 116, 128,
489, 533, 588, 643,
455, 551, 666, 878,
6217, 5887, 5513, 5211,
1546, 1172, 961, 830,
276, 195, 172, 159,
170, 177, 186, 198,
258, 278, 255, 269,
367, 338, 357, 323,
469, 453, 458, 439,
475, 458, 494, 490,
559, 549, 579, 526,
572, 557, 583, 599,
613, 634, 669, 585,
670, 623, 637, 680,
680, 654, 696, 718,
701, 670, 687, 746,
678, 720, 720, 695,
683, 710, 682, 663,
633, 671, 683, 745,
780, 723, 666, 760,
667, 691, 628, 703,
631, 629, 655, 639,
633, 652, 630, 644,
639, 658, 637, 551,
611, 562, 591, 585,
596, 591, 605, 649,
592, 532, 615, 553,
522, 553, 589, 611,
569, 564, 521, 527,
572, 505, 532, 594,
541, 526, 572, 544,
518, 491, 501, 517,
499, 501, 511, 550,
454, 492, 462, 492,
478, 453, 454, 482,
408, 463, 435, 408,
455, 475, 412, 410,
403, 427, 456, 413,
382, 426, 422, 378,
431, 366, 406, 382,
385, 389, 392, 370,
401, 379, 387, 375,
370, 357, 359, 381,
351, 338, 404, 349,
352, 356, 333, 374,
383, 367, 340, 330,
323, 322, 354, 336,
306, 310, 330, 343,
342, 300, 338, 326,
296, 310, 268, 328,
314, 333, 330, 337,
426, 418, 461, 462,
2278, 2824, 3510, 4150,
24187, 25378, 26870, 28193,
16268, 14549, 12780, 10992,
900, 739, 664, 520,
294, 339, 320, 349,
447, 520, 551, 594,
2345, 2542, 2776, 3024,
3096, 2920, 2752, 2414,
504, 476, 385, 331,
205, 171, 172, 165,
176, 162, 170, 177,
153, 173, 178, 188,
161, 154, 164, 158,
181, 176, 168, 176,
158, 154, 163, 164,
176, 165, 140, 177,
153, 148, 169, 137,
141, 120, 147, 167,
171, 140, 167, 136,
128, 155, 151, 151,
154, 147, 167, 149,
155, 145, 118, 158,
139, 133, 139, 138,
154, 139, 140, 155,
154, 148, 130, 135,
135, 131, 151, 140,
131, 122, 121, 129,
128, 136, 136, 142,
125, 127, 134, 122,
119, 116, 121, 120,
117, 118, 118, 116,
124, 112, 111, 115,
111, 129, 119, 128,
112, 106, 107, 121,
127, 117, 126, 107,
110, 104, 123, 103,
83, 113, 107, 121,
114, 121, 100, 88,
110, 107, 119, 96,
85, 115, 105, 99,
100, 85, 91, 113,
112, 78, 101, 111,
104, 103, 101, 95,
99, 79, 95, 93,
90, 102, 83, 90,
90, 101, 93, 90,
97, 79, 99, 73,
79, 96, 87, 82,
95, 88, 89, 86,
90, 81, 79, 84,
78, 76, 93, 92,
78, 69, 75, 94,
74, 74, 63, 92,
87, 82, 82, 87,
69, 71, 79, 76,
73, 69, 75, 80,
59, 66, 79, 57,
79, 63, 105, 81,
62, 71, 80, 85,
83, 72, 68, 67,
62, 73, 58, 66,
66, 65, 63, 63,
65, 68, 54, 55,
50, 47, 75, 51,
53, 67, 65, 62,
54, 58, 68, 56,
73, 47, 54, 53,
59, 62, 41, 59,
53, 52, 61, 47,
50, 59, 53, 48,
54, 55, 47, 49,
48, 37, 51, 53,
58, 57, 44, 45,
47, 46, 37, 50,
33, 44, 34, 45,
43, 31, 47, 44,
40, 46, 46, 40,
42, 38, 37, 32,
39, 45, 43, 38,
34, 40, 50, 28,
23, 36, 38, 38,
28, 42, 36, 47,
36, 33, 35, 38,
38, 30, 36, 31,
29, 34, 25, 29,
37, 23, 32, 29,
39, 32, 34, 42,
29, 27, 34, 23,
25, 24, 31, 25,
27, 36, 28, 24,
33, 28, 31, 25,
34, 32, 22, 19,
31, 26, 40, 32,
21, 30, 19, 29,
25, 19, 33, 29,
19, 18, 15, 20,
17, 15, 27, 25,
23, 11, 24, 20,
25, 23, 16, 20,
24, 16, 19, 26,
22, 13, 21, 19,
16, 16, 29, 26,
16, 15, 11, 19,
19, 13, 20, 18,
17, 18, 17, 18,
16, 14, 10, 10,
16, 18, 19, 14,
15, 19, 12, 8,
8, 10, 18, 16,
9, 18, 12, 12,
11, 12, 13, 11,
11, 7, 14, 8,
18, 7, 8, 8,
6, 12, 12, 7,
10, 8, 7, 8,
10, 11, 7, 5,
10, 7, 9, 9,
6, 6, 6, 7,
6, 6, 11, 6,
9, 5, 8, 3,
6, 6, 5, 6,
5, 5, 3, 3,
6, 3, 4, 5,
4, 2, 3, 4,
2, 3, 2, 6,
1, 4, 3, 4,
3, 5, 4, 7,
1, 2, 2, 3,
3, 3, 2, 4,
3, 2, 1, 4,
0, 2, 1, 1,
1, 1, 2, 1,
0, 0, 0, 0,
0, 0, 0, 1,
0, 0, 0, 1,
0, 0, 0, 0,
0, 0, 0, 0,
0, 0, 0, 0,
0, 0, 0, 0,
1, 0, 0, 0,
0, 0, 0, 0,
0, 0, 0, 0,
0, 0, 0, 0,
0, 0, 0, 0,
0, 0, 0, 0,
0, 0, 0, 1,
0, 0, 0, 0,
0, 0, 0, 0,
0, 0, 0, 0,
1, 0, 0, 0,
0, 0, 0, 0,
0, 0, 0, 0,
0, 0, 0, 0,
0, 0, 1, 0,
0, 0, 0, 0,
0, 0, 0, 0,
0, 0, 0, 0,
0, 1, 0, 1,
0, 0, 0, 0,
0, 0, 0, 0,
0, 0, 0, 0,
0, 0, 0, 0,
0, 0, 0, 0,
0, 0, 0, 0,
0, 0, 0, 0,
0, 0, 0, 0,
0, 0, 0, 0,
0, 0, 0, 0,
0, 0, 0, 0,
0, 0, 0, 0,
0, 0, 0, 0,
0, 0, 0, 0,
0, 0, 0, 0,
0, 0, 0, 0,
0, 0, 0, 0,
0, 0, 0, 0,
0, 0, 0, 0,
0, 0, 0, 0,
0, 0, 0, 0,
0, 0, 0, 0,
0, 0, 0, 0,
0, 0, 0, 0,
0, 0, 0, 0,
0, 0, 0, 0,
0, 0, 0, 0,
0, 0, 0, 0,
0, 0, 0, 0,
0, 0, 0, 0,
0, 0, 0, 0,
0, 0, 0, 0,
0, 0, 0, 0,
0, 0, 0, 0,
0, 0, 0, 0,
0, 0, 0, 0,
0, 0, 0, 0,
0, 0, 0, 0,
#ENDOFDATA   :