Folder: OSImageAnalysis/dtsa2/DemoSpectra/K411-K412

Note: README
This repository is to hold test images and code to test and apply several Open Source image analysis packages. It is a "work in progress"

This code is released under the GPL 3.0. You are free to modify this and use it. Please report issues to jrminter@rochester.rr.com 

Constructive comments and suggestions are welcomed.

File: CaF2 std.msa
#FORMAT      : EMSA/MAS Spectral Data File
#VERSION     : 1.0
#TITLE       : Bruker AXS spectrum CaF2
#DATE        : 29-JUL-2008
#TIME        : 10:19
#OWNER       : Bruker AXS
#NPOINTS     : 4096
#NCOLUMNS    : 4
#XUNITS      : eV
#YUNITS      : counts
#DATATYPE    : Y
#XPERCHAN    : 5.00409
#OFFSET      : -477.824
#BEAMKV      : 15
#SIGNALTYPE  : EDS
#ELEVANGLE   : 40
#AZIMANGLE   : 180
#LIVETIME    : 59.358
#REALTIME    : 62.941
#PROBECUR    : 2.5
#TAUWIND     : 0
#TDEADLYR    : 0.00001
#TACTLYR     : 0.045
#TALWIND     : 0.003
#CHOFFSET    : 0.0
#XLABEL      : Energy (eV)
#YLABEL      : Counts
#EDSDET      : SDDUTW
##D2STDCMP   : CaF2,(F:48.6667),(Ca:51.3333),5.0
#SPECTRUM    :
0, 0, 0, 0,
0, 0, 0, 0,
0, 0, 0, 0,
0, 0, 0, 0,
0, 0, 0, 0,
1, 2, 8, 45,
99155, 85618, 66602, 46433,
14, 42, 70, 89,
106, 114, 117, 122,
641, 762, 898, 1050,
707, 653, 635, 593,
147, 154, 164, 153,
224, 237, 229, 230,
331, 362, 390, 390,
7880, 10002, 12469, 14931,
3184, 2203, 1405, 887,
248, 248, 213, 274,
310, 313, 280, 332,
350, 369, 355, 338,
404, 396, 395, 438,
427, 449, 438, 467,
504, 503, 492, 499,
484, 523, 462, 496,
519, 507, 500, 509,
518, 517, 487, 491,
502, 533, 532, 513,
473, 470, 499, 473,
501, 526, 504, 492,
518, 510, 498, 549,
508, 466, 504, 494,
480, 515, 467, 476,
483, 480, 423, 482,
419, 476, 399, 439,
443, 423, 464, 431,
413, 413, 399, 398,
414, 416, 377, 371,
382, 409, 336, 398,
367, 393, 381, 388,
389, 377, 345, 389,
334, 347, 333, 359,
360, 339, 347, 355,
332, 323, 325, 341,
363, 349, 317, 318,
290, 327, 331, 296,
309, 313, 323, 316,
327, 311, 318, 304,
308, 314, 305, 308,
296, 296, 276, 283,
291, 240, 266, 250,
290, 281, 272, 285,
378, 374, 444, 436,
2556, 3103, 3840, 4762,
20729, 21531, 21548, 21639,
6413, 5366, 4489, 3592,
360, 342, 315, 320,
587, 656, 725, 831,
2634, 2725, 2767, 2736,
1090, 930, 849, 778,
159, 174, 194, 188,
167, 183, 166, 157,
174, 201, 181, 178,
176, 138, 154, 166,
158, 151, 159, 145,
155, 150, 153, 165,
141, 154, 143, 140,
140, 152, 125, 136,
138, 136, 158, 150,
149, 132, 149, 134,
139, 120, 149, 150,
107, 145, 127, 135,
123, 143, 126, 125,
125, 124, 120, 127,
109, 132, 118, 122,
134, 108, 134, 133,
128, 110, 122, 121,
98, 116, 137, 110,
116, 108, 123, 122,
105, 118, 93, 114,
110, 104, 117, 128,
128, 110, 128, 101,
102, 111, 95, 93,
107, 100, 90, 117,
88, 91, 116, 102,
96, 78, 88, 97,
92, 99, 81, 98,
91, 103, 97, 98,
98, 79, 100, 104,
93, 86, 103, 94,
94, 82, 75, 82,
93, 77, 85, 88,
86, 95, 89, 90,
74, 90, 86, 72,
93, 77, 62, 96,
73, 89, 84, 79,
70, 86, 65, 74,
73, 63, 74, 73,
65, 52, 81, 84,
87, 81, 58, 60,
67, 63, 75, 73,
65, 59, 68, 64,
60, 56, 73, 59,
71, 67, 80, 69,
71, 64, 63, 63,
62, 68, 53, 61,
57, 68, 60, 55,
59, 62, 66, 47,
54, 62, 44, 45,
59, 62, 56, 52,
42, 42, 51, 38,
51, 55, 56, 47,
41, 46, 54, 50,
46, 54, 49, 54,
47, 61, 56, 54,
44, 51, 56, 45,
49, 53, 44, 66,
58, 44, 46, 49,
46, 47, 43, 42,
44, 54, 37, 32,
51, 40, 50, 44,
38, 44, 44, 48,
44, 47, 24, 40,
30, 49, 49, 39,
41, 46, 34, 31,
36, 35, 41, 52,
54, 29, 31, 38,
28, 27, 37, 32,
34, 36, 31, 30,
29, 42, 40, 40,
36, 27, 35, 43,
33, 36, 33, 43,
35, 38, 26, 37,
26, 36, 25, 22,
37, 31, 29, 37,
35, 26, 29, 32,
20, 31, 27, 28,
21, 28, 17, 31,
21, 20, 20, 18,
35, 29, 29, 26,
37, 21, 25, 24,
34, 24, 32, 24,
26, 24, 27, 25,
22, 20, 23, 24,
27, 19, 25, 26,
26, 23, 26, 21,
19, 18, 17, 29,
22, 18, 21, 20,
13, 19, 13, 14,
15, 14, 20, 15,
23, 12, 16, 13,
13, 19, 16, 19,
23, 23, 16, 12,
17, 18, 16, 24,
12, 16, 22, 14,
15, 16, 17, 12,
16, 19, 12, 24,
12, 14, 12, 14,
19, 13, 13, 11,
9, 16, 14, 12,
12, 13, 13, 6,
13, 13, 8, 13,
15, 14, 12, 11,
6, 4, 14, 11,
11, 16, 12, 10,
20, 11, 12, 9,
7, 15, 6, 5,
8, 6, 8, 13,
6, 10, 9, 9,
7, 4, 9, 5,
12, 4, 6, 7,
4, 7, 4, 8,
7, 6, 8, 10,
5, 7, 7, 9,
7, 8, 7, 7,
8, 2, 5, 6,
6, 6, 6, 4,
7, 6, 6, 3,
3, 8, 4, 4,
5, 3, 10, 5,
3, 1, 4, 3,
3, 3, 5, 5,
3, 4, 2, 5,
4, 3, 3, 5,
4, 0, 6, 6,
2, 2, 2, 2,
2, 1, 2, 0,
2, 1, 2, 3,
2, 3, 0, 1,
1, 4, 2, 2,
0, 2, 0, 3,
0, 2, 2, 2,
0, 1, 1, 1,
3, 2, 1, 1,
0, 1, 1, 0,
0, 0, 0, 0,
0, 0, 0, 0,
0, 0, 1, 1,
0, 0, 0, 0,
0, 0, 0, 0,
0, 0, 1, 0,
0, 0, 0, 0,
0, 0, 0, 0,
0, 0, 0, 0,
0, 0, 0, 0,
0, 0, 0, 0,
0, 0, 0, 0,
0, 0, 0, 0,
0, 0, 0, 0,
0, 0, 0, 0,
0, 0, 0, 0,
0, 0, 0, 0,
0, 0, 0, 0,
0, 0, 0, 0,
0, 0, 0, 0,
0, 0, 0, 0,
0, 0, 0, 0,
0, 0, 0, 0,
0, 0, 0, 0,
0, 0, 0, 0,
0, 0, 0, 0,
0, 0, 0, 0,
0, 0, 0, 0,
0, 0, 0, 0,
0, 0, 0, 0,
0, 0, 0, 1,
0, 0, 0, 0,
0, 0, 0, 0,
0, 0, 0, 0,
0, 0, 0, 0,
0, 0, 0, 0,
0, 0, 0, 0,
0, 0, 0, 0,
0, 0, 0, 0,
0, 0, 0, 0,
0, 0, 0, 0,
0, 0, 0, 0,
0, 0, 0, 0,
0, 0, 0, 0,
0, 0, 0, 0,
0, 0, 0, 0,
0, 0, 0, 0,
0, 0, 0, 0,
0, 0, 0, 0,
0, 0, 0, 0,
0, 0, 0, 0,
0, 0, 0, 0,
0, 0, 0, 0,
0, 0, 0, 0,
0, 0, 0, 0,
0, 0, 0, 0,
0, 0, 0, 0,
0, 0, 0, 0,
0, 0, 0, 0,
0, 0, 0, 0,
0, 0, 0, 0,
0, 0, 0, 0,
0, 0, 0, 0,
0, 0, 0, 0,
#ENDOFDATA   :

File: Fe std.msa
#FORMAT      : EMSA/MAS Spectral Data File
#VERSION     : 1.0
#TITLE       : Bruker AXS spectrum Fe
#DATE        : 29-JUL-2008
#TIME        : 10:20
#OWNER       : Bruker AXS
#NPOINTS     : 4096
#NCOLUMNS    : 4
#XUNITS      : eV
#YUNITS      : counts
#DATATYPE    : Y
#XPERCHAN    : 5.00409
#OFFSET      : -477.824
#BEAMKV      : 15
#SIGNALTYPE  : EDS
#ELEVANGLE   : 40
#AZIMANGLE   : 180
#LIVETIME    : 59.355
#REALTIME    : 63.325
#PROBECUR    : 2.5
#TAUWIND     : 0
#TDEADLYR    : 0.00001
#TACTLYR     : 0.045
#TALWIND     : 0.003
#CHOFFSET    : 0.0
#XLABEL      : Energy (eV)
#YLABEL      : Counts
#EDSDET      : SDDUTW
##D2STDCMP   : Fe,(Fe:100.0),5.0
#SPECTRUM    :
0, 0, 0, 0,
0, 0, 0, 0,
0, 0, 0, 0,
0, 0, 0, 0,
0, 0, 0, 0,
0, 7, 17, 42,
115196, 98574, 76454, 53854,
27, 61, 98, 125,
137, 141, 147, 152,
383, 414, 453, 498,
275, 270, 291, 291,
486, 506, 492, 521,
882, 923, 951, 999,
1949, 2262, 2753, 3495,
6341, 6066, 6300, 6877,
15557, 13062, 10542, 8120,
520, 477, 380, 399,
281, 317, 335, 358,
352, 338, 391, 433,
440, 434, 414, 432,
465, 476, 478, 512,
511, 519, 491, 533,
555, 523, 540, 535,
568, 565, 614, 582,
599, 537, 603, 602,
623, 672, 602, 588,
592, 564, 595, 538,
613, 597, 612, 601,
662, 665, 627, 628,
682, 632, 609, 696,
618, 631, 622, 594,
631, 649, 612, 567,
633, 597, 592, 629,
651, 636, 622, 639,
603, 626, 645, 604,
609, 599, 578, 624,
616, 595, 596, 572,
561, 583, 602, 616,
539, 569, 569, 552,
544, 539, 534, 573,
528, 544, 551, 532,
509, 532, 548, 467,
553, 512, 537, 488,
502, 501, 481, 499,
550, 482, 520, 512,
497, 507, 456, 498,
472, 464, 449, 460,
446, 454, 442, 463,
405, 483, 432, 464,
421, 424, 410, 430,
432, 424, 415, 440,
431, 404, 409, 384,
447, 415, 405, 430,
404, 385, 400, 387,
378, 383, 418, 362,
376, 362, 388, 374,
341, 358, 353, 348,
328, 367, 361, 366,
345, 367, 362, 322,
323, 343, 320, 347,
313, 325, 369, 321,
307, 336, 338, 345,
308, 308, 271, 309,
313, 300, 298, 269,
286, 288, 289, 284,
260, 330, 311, 302,
286, 298, 282, 325,
267, 266, 281, 267,
283, 270, 254, 276,
275, 261, 279, 273,
275, 266, 274, 272,
260, 261, 247, 246,
240, 246, 236, 261,
244, 286, 264, 260,
257, 279, 257, 255,
237, 219, 251, 238,
202, 239, 236, 217,
216, 218, 238, 207,
244, 200, 206, 220,
204, 179, 193, 223,
216, 197, 223, 201,
215, 236, 211, 229,
207, 183, 252, 183,
249, 211, 234, 260,
468, 527, 623, 733,
5045, 5571, 6250, 7041,
12811, 12526, 12474, 11937,
4093, 3481, 3072, 2687,
339, 307, 286, 288,
182, 191, 189, 185,
164, 192, 182, 187,
198, 191, 187, 187,
191, 220, 248, 260,
646, 694, 769, 910,
1795, 1660, 1658, 1685,
876, 805, 720, 700,
197, 215, 168, 179,
112, 91, 126, 114,
135, 111, 122, 124,
116, 112, 146, 118,
113, 135, 114, 105,
110, 110, 96, 121,
110, 109, 93, 107,
93, 121, 114, 116,
112, 102, 98, 113,
93, 111, 92, 89,
99, 100, 110, 119,
101, 115, 89, 103,
110, 109, 110, 105,
121, 109, 102, 93,
118, 104, 108, 103,
93, 92, 73, 108,
82, 87, 106, 110,
90, 72, 93, 75,
84, 79, 91, 84,
81, 96, 85, 106,
80, 102, 83, 80,
71, 91, 90, 91,
90, 99, 79, 90,
74, 94, 78, 90,
67, 87, 81, 83,
86, 88, 78, 78,
76, 65, 79, 71,
76, 76, 73, 60,
67, 82, 66, 61,
67, 73, 77, 63,
75, 74, 68, 63,
64, 72, 85, 79,
77, 81, 67, 61,
73, 69, 64, 62,
65, 76, 68, 59,
48, 69, 62, 61,
65, 59, 66, 66,
62, 66, 63, 59,
60, 61, 51, 58,
53, 50, 66, 60,
45, 69, 60, 52,
52, 64, 50, 49,
46, 49, 58, 61,
39, 37, 47, 49,
55, 52, 41, 59,
47, 43, 42, 54,
44, 46, 39, 47,
48, 52, 47, 44,
40, 41, 44, 52,
54, 39, 46, 44,
48, 40, 41, 39,
40, 41, 47, 35,
41, 48, 31, 30,
38, 38, 31, 35,
42, 34, 45, 39,
52, 33, 31, 30,
40, 38, 33, 37,
31, 30, 31, 29,
29, 32, 34, 32,
37, 29, 31, 31,
27, 35, 30, 27,
34, 30, 18, 22,
32, 25, 24, 28,
21, 27, 27, 27,
28, 16, 24, 40,
17, 36, 18, 27,
19, 22, 25, 26,
32, 21, 28, 25,
22, 19, 22, 19,
28, 25, 15, 20,
23, 22, 21, 22,
17, 25, 19, 14,
16, 9, 11, 15,
17, 13, 13, 15,
15, 18, 17, 11,
18, 18, 11, 17,
8, 13, 12, 15,
7, 15, 9, 17,
10, 11, 11, 14,
5, 12, 8, 11,
9, 12, 10, 9,
9, 10, 5, 12,
12, 10, 12, 10,
7, 13, 4, 9,
13, 10, 9, 5,
15, 12, 9, 7,
9, 2, 4, 3,
3, 5, 4, 8,
13, 8, 6, 7,
2, 7, 6, 4,
3, 6, 4, 9,
1, 3, 4, 4,
2, 5, 2, 3,
5, 2, 1, 1,
3, 1, 0, 4,
3, 1, 1, 2,
5, 1, 3, 0,
0, 0, 2, 0,
1, 0, 1, 0,
0, 0, 0, 0,
0, 0, 0, 0,
0, 0, 0, 0,
0, 0, 0, 0,
0, 0, 0, 1,
0, 0, 0, 0,
0, 0, 0, 0,
0, 0, 0, 1,
0, 0, 0, 0,
0, 0, 0, 0,
1, 0, 0, 0,
0, 0, 0, 0,
0, 0, 0, 0,
0, 0, 0, 0,
0, 1, 0, 0,
0, 0, 0, 0,
0, 0, 0, 0,
0, 0, 0, 0,
0, 0, 0, 0,
0, 0, 0, 0,
0, 0, 0, 0,
0, 0, 0, 0,
1, 0, 0, 0,
0, 0, 0, 0,
0, 0, 1, 0,
0, 0, 0, 0,
0, 0, 0, 1,
0, 0, 0, 0,
0, 0, 0, 0,
0, 0, 0, 0,
0, 0, 0, 0,
0, 0, 0, 0,
0, 0, 0, 0,
0, 0, 0, 0,
0, 0, 0, 0,
0, 0, 0, 0,
0, 0, 0, 0,
0, 0, 0, 0,
0, 0, 0, 0,
0, 0, 0, 0,
0, 0, 0, 0,
0, 0, 0, 0,
0, 0, 0, 0,
0, 0, 0, 0,
0, 0, 0, 0,
0, 0, 0, 0,
0, 0, 0, 0,
0, 0, 0, 0,
0, 0, 0, 0,
0, 0, 0, 0,
0, 0, 0, 0,
0, 0, 0, 0,
0, 0, 0, 0,
0, 0, 0, 0,
0, 0, 0, 0,
0, 0, 0, 0,
0, 0, 0, 0,
0, 0, 0, 0,
0, 0, 0, 0,
0, 0, 0, 0,
0, 0, 0, 0,
0, 0, 0, 0,
#ENDOFDATA   :

File: K411 std.msa
#FORMAT      : EMSA/MAS Spectral Data File
#VERSION     : 1.0
#TITLE       : Bruker AXS spectrum K411
#DATE        : 29-JUL-2008
#TIME        : 10:36
#OWNER       : Bruker AXS
#NPOINTS     : 4096
#NCOLUMNS    : 4
#XUNITS      : eV
#YUNITS      : counts
#DATATYPE    : Y
#XPERCHAN    : 5.00409
#OFFSET      : -477.824
#BEAMKV      : 15
#SIGNALTYPE  : EDS
#ELEVANGLE   : 40
#AZIMANGLE   : 180
#LIVETIME    : 59.358
#REALTIME    : 63.057
#PROBECUR    : 2.5
#TAUWIND     : 0
#TDEADLYR    : 0.00001
#TACTLYR     : 0.045
#TALWIND     : 0.003
#CHOFFSET    : 0.0
#XLABEL      : Energy (eV)
#YLABEL      : Counts
#EDSDET      : SDDUTW
##D2STDCMP   : K411,(O:42.3667),(Mg:8.8465),(Si:25.3817),(Ca:11.0563),(Fe:11.2087),2.95
#SPECTRUM    :
0, 0, 0, 0,
0, 0, 0, 0,
0, 0, 0, 0,
0, 0, 0, 0,
0, 0, 0, 0,
2, 2, 10, 38,
102844, 88250, 68558, 48022,
9, 34, 60, 77,
69, 71, 67, 68,
279, 329, 377, 434,
209, 212, 205, 220,
265, 268, 287, 312,
5320, 6994, 9144, 11572,
3578, 2454, 1527, 1046,
387, 365, 377, 468,
1398, 1294, 1070, 983,
342, 343, 326, 333,
333, 361, 348, 356,
428, 409, 359, 460,
478, 481, 495, 460,
521, 524, 531, 554,
2046, 2575, 3180, 4052,
6209, 5218, 4338, 3536,
480, 502, 512, 459,
504, 479, 514, 491,
559, 579, 532, 550,
535, 554, 545, 541,
4532, 5538, 7384, 9231,
19653, 17623, 15336, 13023,
1498, 1295, 1122, 1087,
365, 343, 352, 328,
341, 337, 338, 304,
348, 349, 339, 329,
340, 321, 306, 326,
312, 356, 340, 303,
317, 320, 337, 312,
287, 307, 297, 305,
279, 318, 265, 309,
311, 287, 293, 300,
259, 292, 281, 305,
269, 279, 281, 282,
260, 269, 271, 283,
259, 251, 273, 261,
268, 262, 259, 265,
273, 248, 249, 259,
249, 244, 259, 243,
246, 231, 260, 224,
230, 228, 232, 242,
227, 229, 222, 209,
250, 235, 221, 210,
243, 236, 236, 246,
639, 734, 881, 1025,
4273, 4515, 4493, 4541,
1374, 1185, 996, 856,
179, 204, 188, 233,
254, 281, 268, 325,
694, 668, 694, 656,
379, 344, 306, 292,
154, 175, 172, 183,
162, 166, 131, 151,
136, 162, 133, 147,
157, 145, 139, 130,
142, 123, 140, 133,
153, 149, 166, 138,
159, 117, 139, 141,
144, 133, 140, 139,
100, 122, 115, 124,
168, 134, 161, 159,
101, 125, 116, 140,
132, 144, 116, 126,
112, 129, 121, 130,
128, 109, 128, 128,
129, 110, 117, 113,
117, 110, 119, 132,
120, 100, 122, 109,
106, 103, 100, 101,
108, 104, 106, 107,
83, 81, 96, 98,
99, 106, 93, 97,
88, 91, 102, 95,
111, 119, 106, 90,
97, 97, 107, 94,
96, 82, 81, 84,
88, 101, 91, 82,
112, 97, 127, 132,
497, 562, 653, 701,
1235, 1193, 1228, 1202,
444, 415, 358, 308,
105, 92, 82, 88,
74, 86, 67, 69,
69, 78, 73, 72,
75, 69, 72, 56,
73, 69, 71, 81,
107, 132, 112, 122,
206, 205, 203, 196,
135, 145, 104, 103,
64, 73, 64, 69,
73, 57, 73, 79,
64, 53, 66, 70,
50, 70, 54, 57,
59, 53, 55, 54,
63, 75, 66, 52,
47, 46, 54, 46,
53, 50, 57, 47,
44, 58, 42, 54,
47, 52, 55, 47,
50, 39, 40, 47,
43, 47, 46, 41,
39, 53, 41, 48,
39, 52, 45, 44,
45, 37, 49, 47,
43, 42, 39, 33,
48, 50, 56, 48,
36, 34, 34, 41,
31, 34, 31, 44,
33, 38, 42, 35,
39, 31, 34, 38,
37, 40, 47, 39,
25, 45, 34, 32,
31, 30, 42, 36,
36, 30, 48, 34,
29, 31, 26, 38,
35, 31, 28, 37,
26, 39, 30, 27,
26, 33, 42, 27,
23, 24, 29, 26,
39, 37, 35, 36,
31, 28, 22, 38,
37, 22, 34, 25,
22, 29, 27, 19,
19, 33, 23, 21,
32, 33, 25, 32,
24, 30, 21, 23,
29, 30, 25, 21,
17, 25, 21, 39,
25, 23, 15, 21,
28, 23, 26, 18,
24, 27, 23, 24,
20, 22, 21, 21,
28, 17, 25, 21,
19, 19, 18, 14,
20, 15, 15, 25,
21, 22, 13, 29,
21, 14, 13, 20,
10, 13, 7, 17,
15, 22, 15, 15,
8, 14, 19, 22,
17, 21, 14, 19,
17, 12, 14, 13,
12, 18, 17, 16,
9, 12, 13, 12,
12, 8, 14, 9,
14, 10, 3, 14,
12, 18, 8, 12,
21, 16, 13, 10,
13, 10, 13, 18,
11, 10, 12, 15,
8, 4, 17, 9,
10, 10, 11, 15,
12, 14, 8, 13,
10, 10, 12, 5,
6, 4, 12, 6,
5, 8, 5, 17,
8, 8, 6, 12,
4, 7, 6, 7,
8, 9, 9, 4,
10, 8, 5, 9,
1, 7, 8, 9,
8, 3, 6, 9,
4, 4, 9, 4,
3, 5, 3, 6,
4, 3, 2, 3,
7, 1, 3, 5,
4, 6, 5, 7,
3, 4, 6, 2,
1, 3, 3, 6,
5, 2, 8, 3,
1, 5, 5, 2,
2, 4, 3, 8,
4, 4, 4, 4,
0, 2, 4, 3,
0, 3, 0, 3,
2, 2, 5, 2,
3, 2, 1, 4,
3, 1, 1, 2,
3, 1, 5, 2,
1, 1, 1, 0,
1, 0, 2, 1,
2, 0, 2, 1,
2, 1, 3, 1,
0, 0, 0, 0,
0, 0, 2, 2,
2, 1, 0, 1,
0, 0, 0, 1,
0, 0, 0, 0,
0, 0, 0, 0,
0, 0, 0, 0,
0, 0, 0, 0,
0, 0, 0, 0,
0, 0, 0, 0,
0, 0, 0, 0,
0, 0, 0, 0,
0, 0, 0, 0,
0, 0, 0, 0,
0, 0, 0, 0,
0, 0, 0, 0,
0, 0, 0, 0,
0, 0, 0, 0,
0, 0, 0, 0,
0, 0, 0, 0,
0, 0, 0, 0,
0, 0, 0, 0,
0, 0, 0, 0,
0, 0, 0, 0,
0, 0, 0, 0,
0, 0, 0, 0,
0, 0, 0, 0,
0, 0, 0, 0,
0, 0, 0, 0,
0, 0, 0, 0,
0, 0, 0, 0,
0, 0, 0, 0,
0, 0, 0, 0,
0, 0, 0, 0,
0, 0, 0, 0,
0, 0, 0, 0,
0, 0, 0, 0,
0, 0, 0, 0,
0, 0, 0, 0,
0, 0, 0, 0,
0, 0, 0, 0,
0, 0, 0, 0,
0, 0, 0, 0,
0, 0, 0, 0,
0, 0, 0, 0,
0, 0, 0, 0,
0, 0, 0, 0,
0, 0, 0, 0,
0, 0, 0, 0,
0, 0, 0, 0,
0, 0, 0, 0,
0, 0, 0, 0,
0, 0, 0, 0,
0, 0, 0, 0,
0, 0, 0, 0,
0, 0, 0, 0,
0, 0, 0, 0,
0, 0, 0, 0,
0, 0, 0, 0,
0, 0, 0, 0,
0, 0, 0, 0,
0, 0, 0, 0,
0, 0, 0, 0,
0, 0, 0, 0,
0, 0, 0, 0,
0, 0, 0, 0,
0, 0, 0, 0,
#ENDOFDATA   :

File: K412 std.msa
#FORMAT      : EMSA/MAS Spectral Data File
#VERSION     : 1.0
#TITLE       : Bruker AXS spectrum K412
#DATE        : 29-JUL-2008
#TIME        : 10:38
#OWNER       : Bruker AXS
#NPOINTS     : 4096
#NCOLUMNS    : 4
#XUNITS      : eV
#YUNITS      : counts
#DATATYPE    : Y
#XPERCHAN    : 5.00409
#OFFSET      : -477.824
#BEAMKV      : 15
#SIGNALTYPE  : EDS
#ELEVANGLE   : 40
#AZIMANGLE   : 180
#LIVETIME    : 59.351
#REALTIME    : 63.12
#PROBECUR    : 2.5
#TAUWIND     : 0
#TDEADLYR    : 0.00001
#TACTLYR     : 0.045
#TALWIND     : 0.003
#CHOFFSET    : 0.0
#XLABEL      : Energy (eV)
#YLABEL      : Counts
#EDSDET      : SDDUTW
##D2STDCMP   : K412,(O:42.758),(Mg:11.6567),(Al:4.9062),(Si:21.1982),(Ca:10.899),(Fe:7.742)
#SPECTRUM    :
0, 0, 0, 0,
0, 0, 0, 0,
0, 0, 0, 0,
0, 0, 0, 0,
0, 0, 0, 0,
0, 6, 9, 47,
102570, 88788, 68028, 47789,
10, 33, 55, 70,
66, 64, 63, 61,
257, 297, 342, 388,
212, 192, 201, 200,
240, 246, 274, 299,
5207, 7012, 9151, 11551,
3781, 2552, 1583, 974,
307, 312, 395, 402,
1099, 970, 841, 750,
319, 413, 301, 365,
384, 385, 365, 359,
431, 400, 418, 411,
516, 534, 513, 537,
576, 555, 547, 602,
2677, 3418, 4264, 5293,
8267, 6987, 5826, 4874,
514, 533, 519, 498,
1834, 2224, 2690, 3104,
2943, 2521, 2156, 1887,
573, 506, 491, 492,
3602, 4631, 5876, 7460,
15623, 14082, 12280, 10714,
1240, 1064, 1030, 901,
384, 346, 320, 349,
347, 312, 304, 312,
320, 343, 341, 321,
294, 297, 324, 303,
318, 324, 321, 284,
303, 308, 314, 320,
255, 284, 319, 299,
255, 304, 293, 308,
295, 273, 274, 300,
250, 261, 273, 266,
289, 286, 285, 275,
235, 266, 278, 258,
263, 239, 245, 283,
277, 241, 249, 259,
261, 255, 245, 259,
257, 244, 218, 254,
229, 247, 223, 223,
225, 217, 207, 214,
236, 210, 231, 240,
199, 203, 235, 219,
225, 238, 240, 237,
582, 798, 845, 1028,
4242, 4303, 4364, 4370,
1388, 1193, 1009, 864,
220, 212, 223, 191,
227, 250, 305, 296,
650, 634, 655, 653,
337, 343, 301, 248,
158, 152, 157, 173,
158, 155, 151, 160,
140, 135, 144, 140,
138, 154, 132, 131,
134, 154, 145, 136,
155, 123, 141, 137,
138, 148, 131, 122,
121, 135, 108, 108,
118, 125, 132, 113,
145, 114, 134, 118,
119, 115, 112, 128,
111, 117, 119, 148,
97, 119, 127, 99,
97, 116, 100, 130,
92, 107, 117, 93,
124, 103, 115, 115,
112, 100, 112, 98,
102, 100, 98, 96,
82, 109, 83, 91,
111, 122, 84, 101,
71, 110, 96, 71,
87, 97, 79, 100,
90, 81, 88, 103,
95, 79, 85, 83,
82, 75, 78, 97,
102, 95, 81, 81,
99, 103, 110, 116,
397, 438, 502, 550,
853, 831, 855, 793,
314, 306, 278, 233,
93, 80, 69, 83,
101, 74, 81, 74,
85, 65, 71, 70,
62, 78, 59, 66,
77, 75, 75, 66,
98, 106, 87, 94,
181, 162, 190, 148,
123, 99, 95, 104,
63, 63, 61, 57,
54, 49, 66, 47,
59, 67, 52, 57,
62, 63, 66, 36,
53, 54, 49, 50,
58, 49, 50, 41,
34, 55, 42, 53,
48, 42, 66, 54,
48, 52, 48, 48,
55, 38, 43, 42,
41, 48, 57, 40,
36, 39, 49, 48,
38, 57, 45, 41,
50, 45, 49, 46,
50, 42, 33, 53,
35, 42, 46, 41,
43, 43, 43, 29,
33, 48, 45, 46,
34, 35, 27, 35,
41, 39, 42, 33,
32, 29, 36, 48,
36, 34, 32, 36,
27, 36, 40, 36,
39, 48, 27, 42,
37, 28, 33, 30,
30, 26, 21, 35,
25, 20, 35, 29,
27, 31, 22, 23,
29, 33, 26, 33,
28, 25, 30, 35,
23, 24, 30, 23,
19, 25, 25, 31,
18, 35, 26, 36,
32, 26, 27, 27,
19, 20, 21, 22,
23, 17, 26, 26,
26, 24, 22, 16,
30, 28, 28, 21,
16, 18, 30, 27,
23, 16, 14, 27,
13, 23, 20, 28,
15, 24, 22, 23,
20, 22, 24, 19,
18, 18, 22, 19,
24, 18, 26, 18,
24, 16, 14, 12,
18, 18, 24, 22,
14, 12, 12, 15,
13, 9, 13, 12,
20, 10, 22, 15,
11, 19, 16, 15,
16, 11, 23, 13,
15, 15, 18, 8,
10, 23, 8, 12,
12, 16, 13, 17,
14, 17, 13, 10,
14, 11, 13, 14,
15, 10, 17, 12,
14, 9, 17, 9,
16, 9, 10, 10,
6, 11, 11, 5,
16, 7, 15, 12,
10, 1, 5, 6,
11, 8, 11, 9,
10, 7, 11, 11,
8, 10, 7, 12,
10, 1, 6, 10,
9, 7, 8, 6,
7, 5, 9, 4,
12, 11, 9, 7,
9, 9, 4, 6,
9, 5, 7, 7,
5, 4, 8, 5,
8, 2, 6, 5,
1, 2, 2, 9,
6, 5, 6, 4,
6, 3, 4, 6,
6, 8, 5, 4,
5, 3, 6, 3,
1, 8, 3, 5,
3, 5, 2, 3,
1, 2, 2, 3,
2, 3, 5, 5,
3, 2, 1, 3,
4, 5, 0, 1,
1, 3, 1, 1,
4, 1, 4, 3,
2, 0, 2, 2,
2, 3, 1, 0,
0, 2, 1, 5,
1, 1, 1, 1,
1, 1, 0, 1,
0, 4, 0, 0,
1, 2, 0, 0,
2, 2, 1, 0,
0, 0, 0, 1,
0, 1, 0, 1,
0, 0, 0, 0,
0, 0, 0, 0,
0, 0, 0, 0,
0, 0, 0, 0,
0, 0, 0, 0,
0, 0, 0, 0,
0, 0, 0, 0,
0, 0, 0, 0,
0, 0, 0, 0,
0, 0, 0, 0,
0, 0, 0, 0,
0, 0, 0, 0,
0, 0, 0, 0,
0, 0, 0, 0,
0, 0, 0, 0,
0, 0, 0, 0,
0, 0, 0, 0,
0, 0, 0, 0,
0, 0, 0, 0,
0, 0, 0, 0,
0, 0, 0, 0,
0, 0, 0, 0,
0, 0, 0, 0,
0, 0, 0, 0,
0, 0, 0, 0,
0, 0, 0, 0,
0, 0, 0, 0,
0, 0, 0, 0,
0, 0, 0, 0,
0, 0, 0, 0,
0, 0, 0, 0,
0, 0, 0, 0,
0, 0, 0, 0,
0, 0, 0, 0,
0, 0, 0, 0,
0, 0, 0, 0,
0, 0, 0, 0,
0, 0, 0, 0,
0, 0, 0, 0,
0, 0, 0, 0,
0, 0, 0, 0,
0, 0, 0, 0,
0, 0, 0, 0,
0, 0, 0, 0,
0, 0, 0, 0,
0, 0, 0, 0,
0, 0, 0, 0,
0, 0, 0, 0,
0, 0, 0, 0,
0, 0, 0, 0,
0, 0, 0, 0,
0, 0, 0, 0,
0, 0, 0, 0,
0, 0, 0, 0,
0, 0, 0, 0,
0, 0, 0, 0,
0, 0, 0, 0,
0, 0, 0, 0,
0, 0, 0, 0,
0, 0, 0, 0,
0, 0, 0, 0,
0, 0, 0, 0,
0, 0, 0, 0,
0, 0, 0, 0,
#ENDOFDATA   :

File: MgO std.msa
#FORMAT      : EMSA/MAS Spectral Data File
#VERSION     : 1.0
#TITLE       : Bruker AXS spectrum MgO
#DATE        : 29-JUL-2008
#TIME        : 10:12
#OWNER       : Bruker AXS
#NPOINTS     : 4096
#NCOLUMNS    : 4
#XUNITS      : eV
#YUNITS      : counts
#DATATYPE    : Y
#XPERCHAN    : 5.00409
#OFFSET      : -477.824
#BEAMKV      : 15
#SIGNALTYPE  : EDS
#ELEVANGLE   : 40
#AZIMANGLE   : 180
#LIVETIME    : 59.349
#REALTIME    : 63.851
#PROBECUR    : 2.5
#TAUWIND     : 0
#TDEADLYR    : 0.00001
#TACTLYR     : 0.045
#TALWIND     : 0.003
#CHOFFSET    : 0.0
#XLABEL      : Energy (eV)
#YLABEL      : Counts
#EDSDET      : SDDUTW
##D2STDCMP   : MgO,(O:39.6964),(Mg:60.3036),2.95
#SPECTRUM    :
0, 0, 0, 0,
0, 0, 0, 0,
0, 0, 0, 0,
0, 0, 0, 0,
0, 0, 0, 0,
0, 5, 12, 60,
142763, 122113, 94737, 66221,
18, 48, 81, 102,
75, 73, 74, 78,
278, 329, 387, 446,
168, 163, 148, 150,
311, 337, 355, 380,
7005, 9401, 12210, 15552,
5283, 3344, 2193, 1244,
229, 213, 269, 268,
304, 268, 321, 301,
379, 419, 361, 439,
454, 445, 456, 503,
499, 560, 571, 571,
673, 647, 725, 694,
1061, 1084, 1050, 1101,
13453, 17933, 24047, 30436,
48230, 40789, 33224, 26190,
513, 426, 401, 364,
276, 247, 257, 273,
268, 249, 238, 276,
276, 263, 263, 260,
264, 307, 301, 323,
300, 355, 326, 323,
269, 284, 262, 282,
281, 262, 273, 237,
292, 249, 273, 222,
247, 259, 303, 258,
258, 259, 288, 272,
266, 241, 245, 256,
249, 258, 245, 261,
229, 247, 246, 292,
284, 296, 293, 314,
236, 263, 223, 246,
258, 224, 235, 220,
216, 197, 238, 213,
215, 221, 193, 246,
199, 210, 223, 204,
196, 209, 199, 222,
234, 189, 190, 190,
172, 190, 202, 179,
209, 204, 195, 186,
192, 189, 156, 167,
213, 144, 180, 200,
182, 182, 190, 191,
181, 165, 182, 154,
161, 184, 171, 172,
178, 171, 190, 169,
139, 185, 149, 161,
128, 137, 163, 145,
129, 135, 150, 153,
132, 147, 144, 155,
159, 163, 136, 117,
142, 139, 156, 134,
133, 155, 136, 112,
121, 139, 122, 130,
127, 127, 135, 122,
130, 128, 98, 115,
115, 135, 115, 114,
119, 108, 117, 137,
116, 132, 111, 115,
109, 107, 121, 99,
109, 110, 105, 101,
89, 96, 121, 109,
98, 96, 117, 97,
89, 98, 79, 126,
92, 107, 85, 100,
102, 98, 103, 109,
88, 89, 96, 95,
88, 94, 76, 95,
70, 93, 77, 83,
67, 95, 75, 95,
66, 84, 71, 76,
74, 61, 70, 81,
86, 82, 92, 69,
68, 67, 76, 61,
81, 82, 83, 71,
68, 73, 82, 62,
49, 70, 76, 74,
69, 43, 69, 67,
70, 68, 67, 83,
50, 60, 74, 61,
59, 61, 71, 64,
65, 48, 55, 56,
70, 65, 83, 70,
54, 46, 45, 56,
54, 60, 60, 46,
56, 63, 45, 54,
43, 41, 47, 63,
55, 53, 53, 66,
55, 48, 46, 45,
63, 43, 49, 67,
51, 39, 46, 46,
45, 44, 45, 50,
48, 39, 54, 56,
36, 48, 36, 40,
46, 42, 50, 39,
40, 35, 39, 35,
47, 37, 30, 41,
48, 45, 19, 44,
43, 36, 41, 41,
39, 34, 47, 37,
34, 47, 48, 41,
38, 36, 36, 37,
37, 42, 37, 34,
38, 32, 24, 30,
32, 38, 29, 27,
37, 22, 30, 29,
33, 27, 28, 24,
25, 40, 26, 25,
37, 31, 34, 32,
30, 34, 39, 32,
29, 28, 30, 30,
32, 28, 25, 25,
25, 27, 32, 27,
24, 27, 24, 29,
22, 19, 18, 20,
22, 12, 36, 29,
22, 35, 26, 24,
23, 17, 24, 26,
23, 28, 26, 17,
19, 26, 18, 29,
21, 18, 25, 24,
25, 21, 24, 19,
12, 23, 21, 21,
24, 17, 24, 25,
18, 20, 7, 20,
20, 21, 19, 19,
14, 10, 19, 16,
14, 20, 16, 17,
12, 21, 19, 18,
25, 13, 22, 18,
15, 19, 16, 17,
18, 18, 11, 13,
15, 18, 11, 17,
13, 11, 9, 16,
25, 14, 11, 13,
11, 6, 11, 15,
9, 8, 15, 10,
19, 16, 16, 11,
16, 11, 16, 15,
14, 12, 14, 14,
7, 10, 12, 14,
11, 12, 10, 10,
8, 14, 15, 10,
14, 8, 13, 11,
13, 16, 12, 8,
10, 7, 7, 6,
6, 3, 8, 9,
7, 8, 13, 5,
13, 5, 8, 7,
13, 10, 11, 11,
13, 8, 7, 8,
4, 7, 8, 11,
8, 6, 7, 5,
3, 10, 5, 2,
8, 4, 5, 7,
6, 6, 7, 6,
4, 6, 5, 7,
6, 3, 6, 4,
4, 3, 5, 5,
4, 6, 7, 6,
4, 4, 3, 5,
2, 3, 6, 7,
6, 6, 4, 2,
2, 4, 4, 2,
3, 4, 4, 4,
2, 1, 5, 10,
2, 4, 1, 6,
1, 1, 0, 1,
0, 2, 2, 4,
2, 2, 3, 8,
2, 2, 7, 1,
1, 2, 7, 4,
1, 3, 2, 3,
5, 2, 0, 0,
3, 1, 3, 1,
0, 3, 0, 0,
1, 2, 1, 1,
2, 0, 4, 1,
0, 0, 0, 1,
0, 1, 1, 0,
0, 0, 1, 0,
0, 1, 3, 1,
0, 0, 0, 0,
1, 0, 0, 1,
0, 0, 1, 1,
1, 1, 0, 0,
0, 0, 0, 1,
0, 0, 0, 0,
0, 0, 0, 1,
0, 0, 0, 0,
0, 0, 0, 0,
0, 0, 0, 0,
0, 0, 0, 0,
0, 0, 0, 0,
0, 0, 0, 0,
0, 0, 0, 0,
0, 0, 0, 0,
0, 0, 0, 0,
0, 0, 0, 0,
0, 0, 0, 0,
0, 0, 0, 0,
0, 0, 0, 0,
0, 0, 0, 0,
0, 0, 0, 0,
0, 0, 0, 0,
0, 0, 0, 0,
0, 0, 0, 0,
0, 0, 0, 0,
0, 0, 0, 0,
0, 0, 0, 0,
0, 0, 0, 0,
0, 0, 0, 0,
0, 0, 0, 0,
0, 0, 0, 0,
0, 0, 0, 0,
0, 0, 0, 0,
0, 0, 0, 0,
0, 0, 0, 0,
0, 0, 0, 0,
0, 0, 0, 0,
0, 0, 0, 0,
0, 0, 0, 0,
0, 0, 0, 0,
0, 0, 0, 0,
0, 0, 0, 0,
0, 0, 0, 0,
0, 0, 0, 0,
0, 0, 0, 0,
0, 0, 0, 0,
0, 0, 0, 0,
0, 0, 0, 0,
0, 0, 0, 0,
0, 0, 0, 0,
0, 0, 0, 0,
0, 0, 0, 0,
0, 0, 0, 0,
0, 0, 0, 0,
0, 0, 0, 0,
0, 0, 0, 0,
0, 0, 0, 0,
0, 0, 0, 0,
0, 0, 0, 0,
0, 0, 0, 0,
0, 0, 0, 0,
0, 0, 0, 0,
0, 0, 0, 0,
0, 0, 0, 0,
0, 0, 0, 0,
0, 0, 0, 0,
0, 0, 0, 0,
#ENDOFDATA   :