Folder: OSImageAnalysis/dtsa2/msa

Note: README
This repository is to hold test images and code to test and apply several Open Source image analysis packages. It is a "work in progress"

This code is released under the GPL 3.0. You are free to modify this and use it. Please report issues to jrminter@rochester.rr.com 

Constructive comments and suggestions are welcomed.

File: Cu-15-Std.msa
#FORMAT      : EMSA/MAS Spectral Data File
#VERSION     : 1.0
#TITLE       : CuStd
#DATE        : 18-DEC-2013
#TIME        : 01:49
#OWNER       : Unknown
#NPOINTS     : 2048
#NCOLUMNS    : 1
#XUNITS      : eV
#YUNITS      : counts
#DATATYPE    : Y
#XPERCHAN    : 10
#OFFSET      : 0
#BEAMKV      : 15
#SIGNALTYPE  : EDS
#ELEVANGLE   : 35
#AZIMANGLE   : 225
#LIVETIME    : 100
#PROBECUR    : 1
#TAUWIND     : 0
#TDEADLYR    : 0.00001
#TACTLYR     : 0.5
#TALWIND     : 0.004
#CHOFFSET    : 0.0
#XLABEL      : Energy (eV)
#YLABEL      : Counts
#EDSDET      : SIUTW
##SPECIMEN   : CuStd
##D2STDCMP   : Pure Cu,(Cu:100.0)
##DET_HASH   : 8bd54cba-bdb1-2809-7cdf-aba568fbcc57
##CALIB_HASH : f5ad288f-0449-f7ce-773b-4fa4d7b7a089
#SPECTRUM    :
0,
0,
2,
26,
69,
55,
81,
168,
67,
81,
115,
420,
778,
6517,
1886,
85,
62,
69,
68,
74,
107,
102,
117,
123,
135,
131,
140,
122,
117,
145,
150,
143,
148,
131,
156,
134,
143,
141,
152,
127,
109,
125,
131,
128,
117,
134,
112,
109,
110,
115,
119,
108,
120,
111,
88,
84,
94,
85,
98,
103,
87,
80,
99,
91,
52,
85,
74,
79,
96,
61,
75,
61,
67,
61,
64,
68,
54,
66,
70,
54,
66,
44,
64,
70,
45,
46,
54,
45,
46,
60,
51,
48,
45,
43,
51,
40,
53,
40,
45,
39,
55,
40,
34,
40,
32,
38,
35,
40,
34,
30,
45,
31,
41,
217,
862,
1241,
545,
109,
33,
31,
29,
27,
40,
29,
22,
44,
93,
203,
128,
49,
26,
19,
23,
25,
19,
20,
17,
16,
20,
17,
19,
17,
16,
16,
15,
20,
14,
21,
18,
17,
14,
18,
15,
19,
12,
16,
15,
10,
11,
16,
14,
6,
12,
14,
11,
13,
13,
13,
11,
13,
12,
11,
0,
0,
0,
0,
0,
0,
0,
0,
0,
0,
0,
0,
0,
0,
0,
0,
0,
0,
0,
0,
0,
0,
0,
0,
0,
0,
0,
0,
0,
0,
0,
0,
0,
0,
0,
0,
0,
0,
0,
0,
0,
0,
0,
0,
0,
0,
0,
0,
0,
0,
0,
0,
0,
0,
0,
0,
0,
0,
0,
0,
0,
0,
0,
0,
0,
0,
0,
0,
0,
0,
0,
0,
0,
0,
0,
0,
0,
0,
0,
0,
0,
0,
0,
0,
0,
0,
0,
0,
0,
0,
0,
0,
0,
0,
0,
0,
0,
0,
0,
0,
0,
0,
0,
0,
0,
0,
0,
0,
0,
0,
0,
0,
0,
0,
0,
0,
0,
0,
0,
0,
0,
0,
#ENDOFDATA   :

File: Cu-15-Unk.msa
#FORMAT      : EMSA/MAS Spectral Data File
#VERSION     : 1.0
#TITLE       : CuUnk
#DATE        : 18-DEC-2013
#TIME        : 02:03
#OWNER       : Unknown
#NPOINTS     : 2048
#NCOLUMNS    : 1
#XUNITS      : eV
#YUNITS      : counts
#DATATYPE    : Y
#XPERCHAN    : 10
#OFFSET      : 0
#BEAMKV      : 15
#SIGNALTYPE  : EDS
#ELEVANGLE   : 35
#AZIMANGLE   : 225
#LIVETIME    : 100
#PROBECUR    : 1
#TAUWIND     : 0
#TDEADLYR    : 0.00001
#TACTLYR     : 0.5
#TALWIND     : 0.004
#CHOFFSET    : 0.0
#XLABEL      : Energy (eV)
#YLABEL      : Counts
#EDSDET      : SIUTW
##SPECIMEN   : CuUnk
##DET_HASH   : 8bd54cba-bdb1-2809-7cdf-aba568fbcc57
##CALIB_HASH : f5ad288f-0449-f7ce-773b-4fa4d7b7a089
#SPECTRUM    :
0,
0,
0,
29,
53,
49,
78,
138,
70,
70,
116,
419,
717,
6627,
1990,
85,
73,
95,
82,
87,
101,
90,
134,
115,
148,
141,
147,
157,
122,
136,
168,
133,
137,
131,
132,
125,
111,
132,
130,
125,
139,
124,
110,
103,
107,
129,
130,
103,
93,
102,
118,
107,
101,
113,
97,
100,
88,
94,
99,
82,
95,
95,
75,
66,
78,
78,
71,
89,
88,
71,
65,
56,
62,
58,
70,
72,
73,
72,
72,
55,
53,
58,
52,
58,
60,
56,
57,
46,
51,
53,
60,
54,
50,
47,
31,
46,
35,
40,
30,
34,
43,
41,
42,
45,
38,
38,
38,
37,
34,
41,
47,
36,
56,
195,
859,
1222,
601,
112,
35,
31,
29,
24,
27,
28,
44,
38,
111,
176,
107,
45,
15,
24,
15,
16,
19,
28,
20,
17,
19,
21,
16,
14,
16,
20,
18,
20,
18,
24,
14,
13,
17,
9,
17,
17,
20,
13,
13,
11,
14,
12,
14,
15,
14,
17,
9,
7,
8,
8,
10,
11,
6,
6,
0,
0,
0,
0,
0,
0,
0,
0,
0,
0,
0,
0,
0,
0,
0,
0,
0,
0,
0,
0,
0,
0,
0,
0,
0,
0,
0,
0,
0,
0,
0,
0,
0,
0,
0,
0,
0,
0,
0,
0,
0,
0,
0,
0,
0,
0,
0,
0,
0,
0,
0,
0,
0,
0,
0,
0,
0,
0,
0,
0,
0,
0,
0,
0,
0,
0,
0,
0,
0,
0,
0,
0,
0,
0,
0,
0,
0,
0,
0,
0,
0,
0,
0,
0,
0,
0,
0,
0,
0,
0,
0,
0,
0,
0,
0,
0,
0,
0,
0,
0,
0,
0,
0,
0,
0,
0,
0,
0,
0,
0,
0,
0,
0,
0,
0,
0,
0,
0,
0,
0,
0,
0,
#ENDOFDATA   :