Folder: OSImageAnalysis/dtsa2/detectors/2-FEI Sirion/Oxford-p6-05eV-4K

Note: README
This repository is to hold test images and code to test and apply several Open Source image analysis packages. It is a "work in progress"

This code is released under the GPL 3.0. You are free to modify this and use it. Please report issues to jrminter@rochester.rr.com 

Constructive comments and suggestions are welcomed.

File: 2013-08-08-FC-20kV-Hole.msa
#FORMAT      : EMSA/MAS Spectral Data File
#VERSION     : 1.0
#TITLE       : 2014-08-08-FC-20kV-Hole
#DATE        : 08-AUG-2014
#TIME        : 10:05
#OWNER       : John Minter
#NPOINTS     : 4096
#NCOLUMNS    : 1
#XUNITS      : eV
#YUNITS      : counts
#DATATYPE    : Y
#XPERCHAN    : 5.00316
#OFFSET      : -203.446
#BEAMKV      : 20
#SIGNALTYPE  : EDS
#ELEVANGLE   : 35
#AZIMANGLE   : 225
#LIVETIME    : 100.8
#REALTIME    : 102.27
#PROBECUR    : 0.81
#TAUWIND     : 0
#TDEADLYR    : 0
#TACTLYR     : 0.045
#TALWIND     : 0.003
#CHOFFSET    : 0.0
#XLABEL      : Energy (eV)
#YLABEL      : Counts
#XPOSITION   : -3.565
#YPOSITION   : 1.404
#ZPOSITION   : 5
#EDSDET      : SDDUTW
#MAGCAM      : 10000
##SPECIMEN   : 2013-08-08-FC-20kV-Hole
##DET_HASH   : 9e704189-5425-fb2b-8d73-cedcd0f1a991
##CALIB_HASH : 01c6b2a9-42a8-272c-ded3-cc8c706f70d4
#SPECTRUM    :
0,
0,
0,
0,
0,
3,
1,
16,
0,
1,
1,
0,
0,
1,
2,
0,
0,
1,
0,
2,
1,
0,
2,
2,
5,
4,
5,
2,
1,
2,
2,
6,
25,
21,
4,
1,
2,
0,
0,
1,
1,
0,
1,
1,
1,
1,
1,
0,
0,
0,
1,
0,
1,
0,
1,
1,
1,
2,
0,
1,
1,
1,
0,
1,
0,
1,
0,
0,
0,
0,
1,
1,
0,
1,
1,
0,
2,
0,
0,
1,
0,
0,
2,
0,
1,
0,
0,
0,
0,
0,
0,
0,
1,
1,
0,
0,
0,
0,
0,
1,
2,
0,
0,
0,
0,
0,
0,
1,
1,
0,
1,
0,
0,
0,
1,
0,
0,
1,
1,
2,
1,
1,
0,
0,
0,
0,
0,
1,
0,
0,
1,
1,
1,
0,
1,
2,
0,
0,
2,
0,
1,
0,
1,
0,
1,
0,
0,
0,
0,
0,
0,
0,
0,
1,
0,
0,
0,
0,
1,
0,
1,
1,
0,
0,
0,
1,
0,
0,
0,
1,
0,
0,
0,
0,
0,
0,
0,
0,
0,
0,
0,
1,
0,
0,
0,
1,
1,
0,
0,
0,
1,
0,
0,
0,
0,
0,
0,
0,
0,
0,
0,
0,
0,
0,
0,
0,
0,
0,
0,
0,
0,
0,
0,
0,
0,
0,
0,
0,
0,
0,
0,
0,
0,
0,
0,
0,
0,
0,
0,
0,
0,
0,
0,
0,
0,
0,
0,
0,
0,
0,
0,
0,
0,
0,
0,
0,
0,
0,
0,
0,
0,
0,
0,
0,
0,
0,
0,
0,
0,
0,
0,
0,
0,
0,
0,
0,
0,
0,
0,
0,
0,
0,
0,
0,
0,
0,
0,
0,
0,
0,
0,
0,
0,
0,
0,
0,
0,
0,
0,
0,
0,
0,
0,
0,
#ENDOFDATA   :

File: 2013-08-08-FC-20kV-Pt.msa
#FORMAT      : EMSA/MAS Spectral Data File
#VERSION     : 1.0
#TITLE       : 2014-08-08-FC-20kV-Pt
#DATE        : 08-AUG-2014
#TIME        : 10:00
#OWNER       : John Minter
#NPOINTS     : 4096
#NCOLUMNS    : 1
#XUNITS      : eV
#YUNITS      : counts
#DATATYPE    : Y
#XPERCHAN    : 5.00316
#OFFSET      : -203.446
#BEAMKV      : 20
#SIGNALTYPE  : EDS
#ELEVANGLE   : 35
#AZIMANGLE   : 225
#LIVETIME    : 100.3
#REALTIME    : 193.392
#PROBECUR    : 0.81
#TAUWIND     : 0
#TDEADLYR    : 0
#TACTLYR     : 0.045
#TALWIND     : 0.003
#CHOFFSET    : 0.0
#XLABEL      : Energy (eV)
#YLABEL      : Counts
#XPOSITION   : -3.315
#YPOSITION   : 1.404
#ZPOSITION   : 5
#EDSDET      : SDDUTW
#MAGCAM      : 10000
##SPECIMEN   : 2013-08-08-FC-20kV-Pt
##DET_HASH   : 9e704189-5425-fb2b-8d73-cedcd0f1a991
##CALIB_HASH : 01c6b2a9-42a8-272c-ded3-cc8c706f70d4
#SPECTRUM    :
0,
0,
0,
0,
0,
322,
355,
834,
359,
274,
331,
300,
333,
399,
453,
520,
538,
639,
709,
743,
841,
828,
836,
915,
984,
1426,
2317,
1070,
1032,
1004,
1317,
3056,
23285,
18865,
6204,
643,
1061,
723,
439,
488,
499,
607,
582,
469,
409,
448,
430,
440,
431,
449,
443,
430,
435,
459,
449,
462,
428,
451,
452,
436,
473,
480,
476,
470,
469,
447,
446,
444,
451,
436,
410,
427,
428,
463,
420,
427,
416,
413,
424,
414,
399,
411,
368,
393,
356,
400,
398,
377,
385,
377,
372,
359,
370,
357,
382,
347,
381,
357,
368,
334,
311,
318,
315,
311,
301,
319,
300,
314,
324,
331,
290,
307,
310,
303,
289,
285,
281,
286,
291,
263,
332,
359,
328,
262,
282,
253,
266,
262,
250,
254,
246,
272,
261,
335,
362,
430,
893,
2046,
2350,
1124,
338,
224,
193,
221,
221,
218,
228,
195,
197,
205,
197,
178,
204,
193,
178,
201,
232,
273,
296,
368,
607,
835,
679,
647,
560,
320,
210,
175,
178,
158,
147,
135,
137,
133,
133,
108,
131,
126,
119,
130,
109,
110,
134,
106,
107,
122,
175,
210,
219,
174,
123,
114,
135,
119,
122,
97,
83,
94,
72,
104,
92,
80,
94,
70,
85,
58,
65,
69,
63,
66,
67,
65,
61,
66,
68,
57,
56,
61,
54,
58,
55,
48,
50,
56,
45,
45,
52,
47,
40,
49,
43,
45,
42,
44,
35,
43,
37,
36,
34,
33,
30,
33,
35,
31,
39,
26,
32,
30,
31,
18,
26,
33,
25,
33,
21,
20,
30,
25,
23,
27,
15,
24,
16,
15,
13,
16,
16,
13,
6,
8,
9,
13,
17,
16,
18,
10,
6,
9,
14,
9,
9,
7,
5,
7,
5,
4,
3,
2,
4,
1,
2,
3,
0,
3,
#ENDOFDATA   :