Folder: OSImageAnalysis/dtsa2/detectors/2-FEI Sirion

Note: dtsa2/detectors/2-FEI Sirion/_Sirion400NC.txt
Instrument: FEI Sirion 400NC
5 - 30 kV

Oxford p4 05eV 2K
Oxford p4 05eV 4K
Oxford p4 10eV 2K

Oxford p6 05eV 2K
Oxford p6 05eV 4K
Oxford p6 10eV 2K

Moxtek AP 3.3 model
TOA 35.0
AZI 45.0
OWD  5.0
STD 54.265
Area 80.0 
Al    8.0
DL    0.085
th    4.5
ZSD   100


Import spectra


spot  zero offset  channel width
 3   -203.38±1.00  10.0062±0.0019
 4   -203.06±0.50  10.0055±0.0009
 5   -203.24±0.25  10.0050±0.0005

Note: README
This repository is to hold test images and code to test and apply several Open Source image analysis packages. It is a "work in progress"

This code is released under the GPL 3.0. You are free to modify this and use it. Please report issues to jrminter@rochester.rr.com 

Constructive comments and suggestions are welcomed.

File: Cu-15kV-P4-10-2K-250s.txt
#FORMAT      : EMSA/MAS Spectral Data File
#VERSION     : 1.0
#TITLE       : Cu-15kV-P4-10-2K-250s
#DATE        : 07-NOV-2016
#TIME        : 09:50
#OWNER       :
#NPOINTS     : 2048.0
#NCOLUMNS    : 1.0
#XUNITS      : keV
#YUNITS      : counts
#DATATYPE    : XY
#XPERCHAN    : 0.005
#OFFSET      : -0.1
#SIGNALTYPE  : EDS
#CHOFFSET    : 20.0
#LIVETIME    : 250.0
#REALTIME    : 356.856
#BEAMKV      : 15.0
#PROBECUR    : 0.0
#MAGCAM      : 2000.0
#XTILTSTGE   : 0.0
#AZIMANGLE   : 0.0
#ELEVANGLE   : 35.0
#XPOSITION mm: 0.1850
#YPOSITION mm: -0.7430
#ZPOSITION mm: 3.4990
##OXINSTPT   : 4
##OXINSTSTROB: 48.09
##OXINSTELEMS: 6,8,29,13
##OXINSTLABEL: 6, 0.277, C
##OXINSTLABEL: 8, 0.525, O
##OXINSTLABEL: 29, 8.048, Cu
##OXINSTLABEL: 29, 8.905, Cu
##OXINSTLABEL: 29, 0.930, Cu
##OXINSTLABEL: 29, 0.832, Cu
##OXINSTLABEL: 29, 0.811, Cu
##OXINSTLABEL: 13, 1.487, Al
#SPECTRUM    : Spectral Data Starts Here
-0.10000, 0.0
-0.06500, 5.0
-0.03000, 508.0
0.00500, 3577.0
0.04000, 4613.0
0.07500, 1835.0
0.11000, 1073.0
0.14500, 954.0
0.18000, 1069.0
0.21500, 1448.0
0.25000, 3287.0
0.28500, 4332.0
0.32000, 1702.0
0.35500, 1566.0
0.39000, 2001.0
0.42500, 2474.0
0.46000, 3190.0
0.49500, 4874.0
0.53000, 5889.0
0.56500, 4381.0
0.60000, 4429.0
0.63500, 5075.0
0.67000, 6060.0
0.70500, 6942.0
0.74000, 9449.0
0.77500, 21330.0
0.81000, 41236.0
0.84500, 35807.0
0.88000, 83913.0
0.91500, 299609.0
0.95000, 300743.0
0.98500, 80713.0
1.02000, 9638.0
1.05500, 3338.0
1.09000, 2391.0
1.12500, 2277.0
1.16000, 2277.0
1.19500, 2425.0
1.23000, 2658.0
1.26500, 2732.0
1.30000, 2673.0
1.33500, 2644.0
1.37000, 2782.0
1.40500, 2950.0
1.44000, 4142.0
1.47500, 6389.0
1.51000, 6185.0
1.54500, 4113.0
1.58000, 3354.0
1.61500, 3275.0
1.65000, 3273.0
1.68500, 3459.0
1.72000, 3817.0
1.75500, 4042.0
1.79000, 4075.0
1.82500, 4701.0
1.86000, 5642.0
1.89500, 5005.0
1.93000, 3919.0
1.96500, 3480.0
2.00000, 3530.0
2.03500, 3620.0
2.07000, 3518.0
2.10500, 3614.0
2.14000, 3629.0
2.17500, 3625.0
2.21000, 3607.0
2.24500, 3697.0
2.28000, 3730.0
2.31500, 3722.0
2.35000, 3760.0
2.38500, 3678.0
2.42000, 3636.0
2.45500, 3668.0
2.49000, 3665.0
2.52500, 3649.0
2.56000, 3625.0
2.59500, 3612.0
2.63000, 3676.0
2.66500, 3573.0
2.70000, 3556.0
2.73500, 3486.0
2.77000, 3465.0
2.80500, 3456.0
2.84000, 3488.0
2.87500, 3451.0
2.91000, 3468.0
2.94500, 3347.0
2.98000, 3445.0
3.01500, 3314.0
3.05000, 3368.0
3.08500, 3323.0
3.12000, 3299.0
3.15500, 3276.0
3.19000, 3183.0
3.22500, 3241.0
3.26000, 3229.0
3.29500, 3229.0
3.33000, 3129.0
3.36500, 3155.0
3.40000, 3072.0
3.43500, 3136.0
3.47000, 3080.0
3.50500, 3025.0
3.54000, 2957.0
3.57500, 2925.0
3.61000, 2881.0
3.64500, 2906.0
3.68000, 2875.0
3.71500, 2841.0
3.75000, 2840.0
3.78500, 2772.0
3.82000, 2787.0
3.85500, 2772.0
3.89000, 2755.0
3.92500, 2659.0
3.96000, 2638.0
3.99500, 2661.0
4.03000, 2590.0
4.06500, 2527.0
4.10000, 2617.0
4.13500, 2493.0
4.17000, 2499.0
4.20500, 2426.0
4.24000, 2439.0
4.27500, 2407.0
4.31000, 2385.0
4.34500, 2380.0
4.38000, 2378.0
4.41500, 2350.0
4.45000, 2236.0
4.48500, 2355.0
4.52000, 2232.0
4.55500, 2174.0
4.59000, 2219.0
4.62500, 2182.0
4.66000, 2122.0
4.69500, 2186.0
4.73000, 2139.0
4.76500, 2160.0
4.80000, 2072.0
4.83500, 2064.0
4.87000, 2084.0
4.90500, 2017.0
4.94000, 2035.0
4.97500, 1995.0
5.01000, 1923.0
5.04500, 2022.0
5.08000, 1893.0
5.11500, 1914.0
5.15000, 1988.0
5.18500, 1878.0
5.22000, 1780.0
5.25500, 1806.0
5.29000, 1859.0
5.32500, 1783.0
5.36000, 1830.0
5.39500, 1739.0
5.43000, 1748.0
5.46500, 1789.0
5.50000, 1759.0
5.53500, 1699.0
5.57000, 1800.0
5.60500, 1737.0
5.64000, 1636.0
5.67500, 1627.0
5.71000, 1598.0
5.74500, 1641.0
5.78000, 1652.0
5.81500, 1671.0
5.85000, 1559.0
5.88500, 1585.0
5.92000, 1520.0
5.95500, 1549.0
5.99000, 1555.0
6.02500, 1547.0
6.06000, 1572.0
6.09500, 1530.0
6.13000, 1408.0
6.16500, 1457.0
6.20000, 1436.0
6.23500, 1426.0
6.27000, 1522.0
6.30500, 1514.0
6.34000, 1439.0
6.37500, 1416.0
6.41000, 1452.0
6.44500, 1354.0
6.48000, 1357.0
6.51500, 1346.0
6.55000, 1289.0
6.58500, 1280.0
6.62000, 1295.0
6.65500, 1289.0
6.69000, 1304.0
6.72500, 1269.0
6.76000, 1233.0
6.79500, 1282.0
6.83000, 1258.0
6.86500, 1156.0
6.90000, 1191.0
6.93500, 1143.0
6.97000, 1230.0
7.00500, 1217.0
7.04000, 1207.0
7.07500, 1103.0
7.11000, 1174.0
7.14500, 1210.0
7.18000, 1181.0
7.21500, 1133.0
7.25000, 1124.0
7.28500, 1114.0
7.32000, 1096.0
7.35500, 1068.0
7.39000, 1048.0
7.42500, 1031.0
7.46000, 1130.0
7.49500, 1053.0
7.53000, 1058.0
7.56500, 1027.0
7.60000, 982.0
7.63500, 1004.0
7.67000, 1047.0
7.70500, 1039.0
7.74000, 1041.0
7.77500, 1072.0
7.81000, 1115.0
7.84500, 1443.0
7.88000, 2582.0
7.91500, 6331.0
7.95000, 14156.0
7.98500, 26100.0
8.02000, 35496.0
8.05500, 35789.0
8.09000, 26952.0
8.12500, 15071.0
8.16000, 6559.0
8.19500, 2624.0
8.23000, 1367.0
8.26500, 1021.0
8.30000, 892.0
8.33500, 868.0
8.37000, 826.0
8.40500, 856.0
8.44000, 887.0
8.47500, 855.0
8.51000, 877.0
8.54500, 891.0
8.58000, 898.0
8.61500, 878.0
8.65000, 874.0
8.68500, 895.0
8.72000, 1034.0
8.75500, 1362.0
8.79000, 2057.0
8.82500, 3299.0
8.86000, 4934.0
8.89500, 5745.0
8.93000, 5395.0
8.96500, 4277.0
9.00000, 2792.0
9.03500, 1633.0
9.07000, 1021.0
9.10500, 774.0
9.14000, 672.0
9.17500, 617.0
9.21000, 599.0
9.24500, 634.0
9.28000, 630.0
9.31500, 604.0
9.35000, 557.0
9.38500, 635.0
9.42000, 600.0
9.45500, 611.0
9.49000, 575.0
9.52500, 592.0
9.56000, 586.0
9.59500, 573.0
9.63000, 573.0
9.66500, 581.0
9.70000, 584.0
9.73500, 587.0
9.77000, 607.0
9.80500, 642.0
9.84000, 614.0
9.87500, 565.0
9.91000, 577.0
9.94500, 554.0
9.98000, 522.0
10.01500, 512.0
10.05000, 518.0
10.08500, 519.0
10.12000, 483.0
10.13500, 496.0
#ENDOFDATA   :

File: Cu-15kV-P4-20-4K-250s.txt
#FORMAT      : EMSA/MAS Spectral Data File
#VERSION     : 1.0
#TITLE       : Cu-15kV-P4-20-4K-250s
#DATE        : 07-NOV-2016
#TIME        : 09:56
#OWNER       :
#NPOINTS     : 4096.0
#NCOLUMNS    : 1.0
#XUNITS      : keV
#YUNITS      : counts
#DATATYPE    : XY
#XPERCHAN    : 0.005
#OFFSET      : -0.2
#SIGNALTYPE  : EDS
#CHOFFSET    : 40.0
#LIVETIME    : 250.0
#REALTIME    : 357.18
#BEAMKV      : 15.0
#PROBECUR    : 0.0
#MAGCAM      : 2000.0
#XTILTSTGE   : 0.0
#AZIMANGLE   : 0.0
#ELEVANGLE   : 35.0
#XPOSITION mm: 0.1850
#YPOSITION mm: -0.7430
#ZPOSITION mm: 3.4990
##OXINSTPT   : 4
##OXINSTSTROB: 48.08
##OXINSTELEMS: 6,29,8,13
##OXINSTLABEL: 6, 0.277, C
##OXINSTLABEL: 29, 8.048, Cu
##OXINSTLABEL: 29, 8.905, Cu
##OXINSTLABEL: 29, 0.930, Cu
##OXINSTLABEL: 29, 0.832, Cu
##OXINSTLABEL: 29, 0.811, Cu
##OXINSTLABEL: 8, 0.525, O
##OXINSTLABEL: 13, 1.487, Al
#SPECTRUM    : Spectral Data Starts Here
-0.20000, 0.0
-0.13000, 0.0
-0.06000, 10.0
0.01000, 3905.0
0.08000, 1554.0
0.15000, 1018.0
0.22000, 1550.0
0.29000, 3832.0
0.36000, 1532.0
0.43000, 2561.0
0.50000, 5064.0
0.57000, 4278.0
0.64000, 5345.0
0.71000, 7231.0
0.78000, 24599.0
0.85000, 35323.0
0.92000, 327146.0
0.99000, 60544.0
1.06000, 3062.0
1.13000, 2212.0
1.20000, 2407.0
1.27000, 2746.0
1.34000, 2629.0
1.41000, 3013.0
1.48000, 6736.0
1.55000, 3877.0
1.62000, 3314.0
1.69000, 3537.0
1.76000, 3931.0
1.83000, 4857.0
1.90000, 4805.0
1.97000, 3538.0
2.04000, 3628.0
2.11000, 3627.0
2.18000, 3585.0
2.25000, 3581.0
2.32000, 3738.0
2.39000, 3608.0
2.46000, 3659.0
2.53000, 3560.0
2.60000, 3596.0
2.67000, 3652.0
2.74000, 3557.0
2.81000, 3527.0
2.88000, 3443.0
2.95000, 3371.0
3.02000, 3312.0
3.09000, 3382.0
3.16000, 3224.0
3.23000, 3234.0
3.30000, 3200.0
3.37000, 3152.0
3.44000, 3033.0
3.51000, 2991.0
3.58000, 3003.0
3.65000, 2957.0
3.72000, 2855.0
3.79000, 2741.0
3.86000, 2693.0
3.93000, 2692.0
4.00000, 2606.0
4.07000, 2595.0
4.14000, 2547.0
4.21000, 2484.0
4.28000, 2427.0
4.35000, 2352.0
4.42000, 2311.0
4.49000, 2226.0
4.56000, 2202.0
4.63000, 2199.0
4.70000, 2195.0
4.77000, 2120.0
4.84000, 2106.0
4.91000, 2043.0
4.98000, 1943.0
5.05000, 1980.0
5.12000, 1950.0
5.19000, 1896.0
5.26000, 1913.0
5.33000, 1838.0
5.40000, 1785.0
5.47000, 1773.0
5.54000, 1760.0
5.61000, 1613.0
5.68000, 1651.0
5.75000, 1638.0
5.82000, 1636.0
5.89000, 1544.0
5.96000, 1559.0
6.03000, 1500.0
6.10000, 1474.0
6.17000, 1472.0
6.24000, 1485.0
6.31000, 1494.0
6.38000, 1419.0
6.45000, 1332.0
6.52000, 1408.0
6.59000, 1249.0
6.66000, 1306.0
6.73000, 1248.0
6.80000, 1229.0
6.87000, 1253.0
6.94000, 1201.0
7.01000, 1133.0
7.08000, 1132.0
7.15000, 1181.0
7.22000, 1147.0
7.29000, 1062.0
7.36000, 1101.0
7.43000, 1112.0
7.50000, 1050.0
7.57000, 999.0
7.64000, 1019.0
7.71000, 1081.0
7.78000, 1042.0
7.85000, 1436.0
7.92000, 7164.0
7.99000, 27783.0
8.06000, 35310.0
8.13000, 13707.0
8.20000, 2441.0
8.27000, 980.0
8.34000, 899.0
8.41000, 903.0
8.48000, 837.0
8.55000, 830.0
8.62000, 878.0
8.69000, 927.0
8.76000, 1401.0
8.83000, 3638.0
8.90000, 5712.0
8.97000, 4016.0
9.04000, 1561.0
9.11000, 798.0
9.18000, 655.0
9.25000, 633.0
9.32000, 568.0
9.39000, 563.0
9.46000, 563.0
9.53000, 595.0
9.60000, 569.0
9.67000, 562.0
9.74000, 619.0
9.81000, 620.0
9.88000, 548.0
9.95000, 523.0
10.02000, 496.0
10.09000, 482.0
10.16000, 494.0
10.23000, 505.0
10.30000, 451.0
10.37000, 493.0
10.44000, 463.0
10.51000, 445.0
10.58000, 470.0
10.65000, 456.0
10.72000, 434.0
10.79000, 400.0
10.86000, 405.0
10.93000, 382.0
11.00000, 400.0
11.07000, 371.0
11.14000, 355.0
11.21000, 342.0
11.28000, 337.0
11.35000, 332.0
11.42000, 336.0
11.49000, 317.0
11.56000, 319.0
11.63000, 300.0
11.70000, 310.0
11.77000, 300.0
11.84000, 279.0
11.91000, 256.0
11.98000, 254.0
12.05000, 280.0
12.12000, 259.0
12.19000, 234.0
12.26000, 251.0
12.33000, 274.0
12.40000, 231.0
12.47000, 208.0
12.54000, 225.0
12.61000, 208.0
12.68000, 210.0
12.75000, 186.0
12.82000, 200.0
12.89000, 176.0
12.96000, 170.0
13.03000, 155.0
13.10000, 164.0
13.17000, 131.0
13.24000, 154.0
13.31000, 149.0
13.38000, 132.0
13.45000, 119.0
13.52000, 108.0
13.59000, 122.0
13.66000, 114.0
13.73000, 111.0
13.80000, 98.0
13.87000, 95.0
13.94000, 91.0
14.01000, 77.0
14.08000, 87.0
14.15000, 62.0
14.22000, 68.0
14.29000, 62.0
14.36000, 62.0
14.43000, 47.0
14.50000, 43.0
14.57000, 43.0
14.64000, 45.0
14.71000, 37.0
14.78000, 21.0
14.85000, 23.0
14.92000, 21.0
14.99000, 20.0
15.06000, 14.0
15.13000, 10.0
15.20000, 10.0
15.27000, 13.0
15.34000, 11.0
15.41000, 11.0
15.48000, 9.0
15.55000, 7.0
15.62000, 8.0
15.69000, 7.0
15.76000, 6.0
15.83000, 12.0
15.90000, 13.0
15.97000, 46.0
16.04000, 56.0
16.11000, 69.0
16.18000, 43.0
16.25000, 16.0
16.32000, 8.0
16.39000, 8.0
16.46000, 8.0
16.53000, 6.0
16.60000, 8.0
16.67000, 9.0
16.74000, 15.0
16.81000, 5.0
16.88000, 14.0
16.95000, 28.0
17.02000, 16.0
17.09000, 12.0
17.16000, 4.0
17.23000, 7.0
17.30000, 6.0
17.37000, 9.0
17.44000, 5.0
17.51000, 4.0
17.58000, 3.0
17.65000, 3.0
17.72000, 5.0
17.79000, 7.0
17.86000, 7.0
17.93000, 6.0
18.00000, 7.0
18.07000, 8.0
18.14000, 3.0
18.21000, 6.0
18.28000, 4.0
18.35000, 3.0
18.42000, 6.0
18.49000, 3.0
18.56000, 4.0
18.63000, 2.0
18.70000, 2.0
18.77000, 1.0
18.84000, 4.0
18.91000, 4.0
18.98000, 4.0
19.05000, 3.0
19.12000, 2.0
19.19000, 3.0
19.26000, 4.0
19.33000, 2.0
19.40000, 1.0
19.47000, 2.0
19.54000, 2.0
19.61000, 2.0
19.68000, 2.0
19.75000, 3.0
19.82000, 4.0
19.89000, 2.0
19.96000, 3.0
20.03000, 2.0
20.10000, 2.0
20.17000, 3.0
20.24000, 1.0
20.27500, 2.0
#ENDOFDATA   :

File: Oxford p4 05eV 2K.txt
#FORMAT      : EMSA/MAS Spectral Data File
#VERSION     : 1.0
#TITLE       : 2048-5eV-s5-p4
#DATE        : 29-MAY-2014
#TIME        : 15:15
#OWNER       :
#NPOINTS     : 2048.0
#NCOLUMNS    : 1.0
#XUNITS      : keV
#YUNITS      : counts
#DATATYPE    : XY
#XPERCHAN    : 0.005
#OFFSET      : -0.1
#SIGNALTYPE  : EDS
#CHOFFSET    : 20.0
#LIVETIME    : 100.672
#REALTIME    : 137.949
#BEAMKV      : 20.0
#PROBECUR    : 0.0
#MAGCAM      : 3500.0
#XTILTSTGE   : 0.0
#AZIMANGLE   : 0.0
#ELEVANGLE   : 35.0
#XPOSITION mm: -3.1130
#YPOSITION mm: 1.3240
#ZPOSITION mm: 5.0130
##OXINSTPT   : 4
##OXINSTSTROB: 48.11
##OXINSTELEMS: 6,25,13,14
##OXINSTLABEL: 6, 0.277, C
##OXINSTLABEL: 25, 5.899, Mn
##OXINSTLABEL: 25, 6.490, Mn
##OXINSTLABEL: 25, 0.636, Mn
##OXINSTLABEL: 25, 0.567, Mn
##OXINSTLABEL: 13, 1.487, Al
##OXINSTLABEL: 14, 1.740, Si
#SPECTRUM    : Spectral Data Starts Here
-0.10000, 0.0
-0.06500, 2.0
-0.03000, 209.0
0.00500, 1386.0
0.04000, 1981.0
0.07500, 688.0
0.11000, 311.0
0.14500, 301.0
0.18000, 368.0
0.21500, 530.0
0.25000, 1574.0
0.28500, 2173.0
0.32000, 723.0
0.35500, 558.0
0.39000, 782.0
0.42500, 1002.0
0.46000, 1436.0
0.49500, 3050.0
0.53000, 8464.0
0.56500, 11546.0
0.60000, 13509.0
0.63500, 23322.0
0.67000, 10677.0
0.70500, 1495.0
0.74000, 591.0
0.77500, 439.0
0.81000, 417.0
0.84500, 471.0
0.88000, 520.0
0.91500, 543.0
0.95000, 586.0
0.98500, 647.0
1.02000, 635.0
1.05500, 738.0
1.09000, 733.0
1.12500, 821.0
1.16000, 887.0
1.19500, 951.0
1.23000, 993.0
1.26500, 978.0
1.30000, 1062.0
1.33500, 1002.0
1.37000, 1039.0
1.40500, 1146.0
1.44000, 1241.0
1.47500, 1436.0
1.51000, 1419.0
1.54500, 1288.0
1.58000, 1230.0
1.61500, 1215.0
1.65000, 1285.0
1.68500, 1324.0
1.72000, 1354.0
1.75500, 1418.0
1.79000, 1417.0
1.82500, 1340.0
1.86000, 1300.0
1.89500, 1283.0
1.93000, 1284.0
1.96500, 1348.0
2.00000, 1368.0
2.03500, 1373.0
2.07000, 1360.0
2.10500, 1380.0
2.14000, 1320.0
2.17500, 1324.0
2.21000, 1347.0
2.24500, 1341.0
2.28000, 1407.0
2.31500, 1423.0
2.35000, 1399.0
2.38500, 1368.0
2.42000, 1358.0
2.45500, 1431.0
2.49000, 1377.0
2.52500, 1430.0
2.56000, 1339.0
2.59500, 1361.0
2.63000, 1343.0
2.66500, 1350.0
2.70000, 1327.0
2.73500, 1383.0
2.77000, 1336.0
2.80500, 1323.0
2.84000, 1319.0
2.87500, 1296.0
2.91000, 1254.0
2.94500, 1277.0
2.98000, 1253.0
3.01500, 1225.0
3.05000, 1274.0
3.08500, 1226.0
3.12000, 1260.0
3.15500, 1175.0
3.19000, 1207.0
3.22500, 1221.0
3.26000, 1191.0
3.29500, 1167.0
3.33000, 1170.0
3.36500, 1160.0
3.40000, 1125.0
3.43500, 1157.0
3.47000, 1134.0
3.50500, 1061.0
3.54000, 1124.0
3.57500, 1051.0
3.61000, 1097.0
3.64500, 1105.0
3.68000, 1049.0
3.71500, 1043.0
3.75000, 1000.0
3.78500, 1025.0
3.82000, 1028.0
3.85500, 1035.0
3.89000, 999.0
3.92500, 972.0
3.96000, 1000.0
3.99500, 1042.0
4.03000, 1032.0
4.06500, 1062.0
4.10000, 1146.0
4.13500, 1208.0
4.17000, 1208.0
4.20500, 1108.0
4.24000, 973.0
4.27500, 982.0
4.31000, 905.0
4.34500, 859.0
4.38000, 921.0
4.41500, 904.0
4.45000, 833.0
4.48500, 881.0
4.52000, 882.0
4.55500, 849.0
4.59000, 893.0
4.62500, 881.0
4.66000, 820.0
4.69500, 818.0
4.73000, 856.0
4.76500, 819.0
4.80000, 844.0
4.83500, 818.0
4.87000, 771.0
4.90500, 795.0
4.94000, 786.0
4.97500, 779.0
5.01000, 777.0
5.04500, 787.0
5.08000, 747.0
5.11500, 748.0
5.15000, 751.0
5.18500, 711.0
5.22000, 751.0
5.25500, 745.0
5.29000, 706.0
5.32500, 685.0
5.36000, 759.0
5.39500, 691.0
5.43000, 669.0
5.46500, 671.0
5.50000, 686.0
5.53500, 728.0
5.57000, 727.0
5.60500, 755.0
5.64000, 799.0
5.67500, 766.0
5.71000, 1020.0
5.74500, 2203.0
5.78000, 7122.0
5.81500, 20817.0
5.85000, 43381.0
5.88500, 61230.0
5.92000, 57571.0
5.95500, 36050.0
5.99000, 15467.0
6.02500, 4789.0
6.06000, 1496.0
6.09500, 769.0
6.13000, 723.0
6.16500, 681.0
6.20000, 679.0
6.23500, 691.0
6.27000, 709.0
6.30500, 807.0
6.34000, 1063.0
6.37500, 1935.0
6.41000, 3837.0
6.44500, 6642.0
6.48000, 8457.0
6.51500, 7673.0
6.55000, 5011.0
6.58500, 2581.0
6.62000, 1115.0
6.65500, 559.0
6.69000, 448.0
6.72500, 414.0
6.76000, 407.0
6.79500, 393.0
6.83000, 404.0
6.86500, 404.0
6.90000, 399.0
6.93500, 395.0
6.97000, 424.0
7.00500, 383.0
7.04000, 427.0
7.07500, 408.0
7.11000, 462.0
7.14500, 402.0
7.18000, 404.0
7.21500, 399.0
7.25000, 400.0
7.28500, 375.0
7.32000, 387.0
7.35500, 382.0
7.39000, 386.0
7.42500, 389.0
7.46000, 387.0
7.49500, 391.0
7.53000, 389.0
7.56500, 377.0
7.60000, 357.0
7.63500, 374.0
7.67000, 401.0
7.70500, 390.0
7.74000, 351.0
7.77500, 334.0
7.81000, 387.0
7.84500, 360.0
7.88000, 366.0
7.91500, 363.0
7.95000, 388.0
7.98500, 357.0
8.02000, 374.0
8.05500, 352.0
8.09000, 366.0
8.12500, 318.0
8.16000, 334.0
8.19500, 349.0
8.23000, 340.0
8.26500, 354.0
8.30000, 369.0
8.33500, 347.0
8.37000, 339.0
8.40500, 356.0
8.44000, 354.0
8.47500, 343.0
8.51000, 335.0
8.54500, 341.0
8.58000, 325.0
8.61500, 327.0
8.65000, 333.0
8.68500, 316.0
8.72000, 311.0
8.75500, 310.0
8.79000, 332.0
8.82500, 325.0
8.86000, 329.0
8.89500, 315.0
8.93000, 300.0
8.96500, 291.0
9.00000, 284.0
9.03500, 306.0
9.07000, 299.0
9.10500, 302.0
9.14000, 289.0
9.17500, 279.0
9.21000, 300.0
9.24500, 283.0
9.28000, 282.0
9.31500, 304.0
9.35000, 277.0
9.38500, 282.0
9.42000, 301.0
9.45500, 298.0
9.49000, 287.0
9.52500, 270.0
9.56000, 294.0
9.59500, 262.0
9.63000, 252.0
9.66500, 268.0
9.70000, 238.0
9.73500, 259.0
9.77000, 283.0
9.80500, 268.0
9.84000, 273.0
9.87500, 254.0
9.91000, 254.0
9.94500, 264.0
9.98000, 272.0
10.01500, 256.0
10.05000, 257.0
10.08500, 268.0
10.12000, 255.0
10.13500, 230.0
#ENDOFDATA   :

File: Oxford p4 05eV 4K.txt
#FORMAT      : EMSA/MAS Spectral Data File
#VERSION     : 1.0
#TITLE       : 4096-5eV-s5-p4
#DATE        : 29-MAY-2014
#TIME        : 15:07
#OWNER       :
#NPOINTS     : 4096.0
#NCOLUMNS    : 1.0
#XUNITS      : keV
#YUNITS      : counts
#DATATYPE    : XY
#XPERCHAN    : 0.005
#OFFSET      : -0.2
#SIGNALTYPE  : EDS
#CHOFFSET    : 40.0
#LIVETIME    : 100.289
#REALTIME    : 137.402
#BEAMKV      : 20.0
#PROBECUR    : 0.0
#MAGCAM      : 3500.0
#XTILTSTGE   : 0.0
#AZIMANGLE   : 0.0
#ELEVANGLE   : 35.0
#XPOSITION mm: -3.1130
#YPOSITION mm: 1.3240
#ZPOSITION mm: 5.0130
##OXINSTPT   : 4
##OXINSTSTROB: 48.07
##OXINSTELEMS: 25,6,13,14
##OXINSTLABEL: 25, 5.899, Mn
##OXINSTLABEL: 25, 6.490, Mn
##OXINSTLABEL: 25, 0.636, Mn
##OXINSTLABEL: 25, 0.567, Mn
##OXINSTLABEL: 6, 0.277, C
##OXINSTLABEL: 13, 1.487, Al
##OXINSTLABEL: 14, 1.740, Si
#SPECTRUM    : Spectral Data Starts Here
-0.20000, 0.0
-0.13000, 0.0
-0.06000, 7.0
0.01000, 1606.0
0.08000, 515.0
0.15000, 286.0
0.22000, 626.0
0.29000, 1996.0
0.36000, 546.0
0.43000, 1030.0
0.50000, 3724.0
0.57000, 11010.0
0.64000, 22698.0
0.71000, 1147.0
0.78000, 417.0
0.85000, 463.0
0.92000, 590.0
0.99000, 630.0
1.06000, 760.0
1.13000, 856.0
1.20000, 985.0
1.27000, 1030.0
1.34000, 1053.0
1.41000, 1114.0
1.48000, 1470.0
1.55000, 1315.0
1.62000, 1278.0
1.69000, 1262.0
1.76000, 1414.0
1.83000, 1333.0
1.90000, 1304.0
1.97000, 1329.0
2.04000, 1359.0
2.11000, 1378.0
2.18000, 1351.0
2.25000, 1356.0
2.32000, 1435.0
2.39000, 1373.0
2.46000, 1377.0
2.53000, 1395.0
2.60000, 1327.0
2.67000, 1329.0
2.74000, 1364.0
2.81000, 1293.0
2.88000, 1323.0
2.95000, 1275.0
3.02000, 1301.0
3.09000, 1272.0
3.16000, 1190.0
3.23000, 1190.0
3.30000, 1202.0
3.37000, 1144.0
3.44000, 1150.0
3.51000, 1104.0
3.58000, 1072.0
3.65000, 1073.0
3.72000, 1051.0
3.79000, 1038.0
3.86000, 1015.0
3.93000, 996.0
4.00000, 985.0
4.07000, 1048.0
4.14000, 1204.0
4.21000, 1104.0
4.28000, 912.0
4.35000, 875.0
4.42000, 867.0
4.49000, 860.0
4.56000, 863.0
4.63000, 824.0
4.70000, 866.0
4.77000, 784.0
4.84000, 796.0
4.91000, 797.0
4.98000, 797.0
5.05000, 771.0
5.12000, 772.0
5.19000, 753.0
5.26000, 702.0
5.33000, 680.0
5.40000, 665.0
5.47000, 698.0
5.54000, 694.0
5.61000, 745.0
5.68000, 811.0
5.75000, 2538.0
5.82000, 23655.0
5.89000, 62221.0
5.96000, 32608.0
6.03000, 3977.0
6.10000, 750.0
6.17000, 721.0
6.24000, 702.0
6.31000, 792.0
6.38000, 2065.0
6.45000, 6983.0
6.52000, 7482.0
6.59000, 2219.0
6.66000, 562.0
6.73000, 394.0
6.80000, 368.0
6.87000, 371.0
6.94000, 380.0
7.01000, 408.0
7.08000, 405.0
7.15000, 422.0
7.22000, 387.0
7.29000, 352.0
7.36000, 395.0
7.43000, 396.0
7.50000, 372.0
7.57000, 409.0
7.64000, 384.0
7.71000, 364.0
7.78000, 357.0
7.85000, 352.0
7.92000, 388.0
7.99000, 392.0
8.06000, 356.0
8.13000, 337.0
8.20000, 322.0
8.27000, 333.0
8.34000, 349.0
8.41000, 329.0
8.48000, 338.0
8.55000, 325.0
8.62000, 309.0
8.69000, 297.0
8.76000, 325.0
8.83000, 328.0
8.90000, 296.0
8.97000, 298.0
9.04000, 285.0
9.11000, 300.0
9.18000, 274.0
9.25000, 293.0
9.32000, 305.0
9.39000, 291.0
9.46000, 300.0
9.53000, 282.0
9.60000, 264.0
9.67000, 277.0
9.74000, 264.0
9.81000, 263.0
9.88000, 282.0
9.95000, 263.0
10.02000, 254.0
10.09000, 256.0
10.16000, 260.0
10.23000, 248.0
10.30000, 248.0
10.37000, 245.0
10.44000, 233.0
10.51000, 225.0
10.58000, 222.0
10.65000, 230.0
10.72000, 250.0
10.79000, 236.0
10.86000, 210.0
10.93000, 199.0
11.00000, 199.0
11.07000, 213.0
11.14000, 225.0
11.21000, 199.0
11.28000, 176.0
11.35000, 193.0
11.42000, 177.0
11.49000, 204.0
11.56000, 180.0
11.63000, 219.0
11.70000, 343.0
11.77000, 509.0
11.84000, 462.0
11.91000, 301.0
11.98000, 170.0
12.05000, 177.0
12.12000, 161.0
12.19000, 154.0
12.26000, 173.0
12.33000, 219.0
12.40000, 249.0
12.47000, 204.0
12.54000, 150.0
12.61000, 137.0
12.68000, 143.0
12.75000, 121.0
12.82000, 126.0
12.89000, 131.0
12.96000, 117.0
13.03000, 132.0
13.10000, 117.0
13.17000, 118.0
13.24000, 117.0
13.31000, 105.0
13.38000, 111.0
13.45000, 120.0
13.52000, 96.0
13.59000, 89.0
13.66000, 95.0
13.73000, 92.0
13.80000, 101.0
13.87000, 79.0
13.94000, 92.0
14.01000, 94.0
14.08000, 99.0
14.15000, 99.0
14.22000, 85.0
14.29000, 81.0
14.36000, 87.0
14.43000, 80.0
14.50000, 73.0
14.57000, 67.0
14.64000, 80.0
14.71000, 77.0
14.78000, 74.0
14.85000, 82.0
14.92000, 51.0
14.99000, 67.0
15.06000, 66.0
15.13000, 61.0
15.20000, 53.0
15.27000, 64.0
15.34000, 63.0
15.41000, 56.0
15.48000, 52.0
15.55000, 52.0
15.62000, 59.0
15.69000, 48.0
15.76000, 41.0
15.83000, 38.0
15.90000, 54.0
15.97000, 46.0
16.04000, 39.0
16.11000, 46.0
16.18000, 42.0
16.25000, 46.0
16.32000, 39.0
16.39000, 39.0
16.46000, 45.0
16.53000, 39.0
16.60000, 36.0
16.67000, 46.0
16.74000, 31.0
16.81000, 40.0
16.88000, 32.0
16.95000, 35.0
17.02000, 26.0
17.09000, 33.0
17.16000, 27.0
17.23000, 27.0
17.30000, 28.0
17.37000, 23.0
17.44000, 28.0
17.51000, 23.0
17.58000, 23.0
17.65000, 30.0
17.72000, 24.0
17.79000, 14.0
17.86000, 26.0
17.93000, 24.0
18.00000, 19.0
18.07000, 15.0
18.14000, 23.0
18.21000, 13.0
18.28000, 20.0
18.35000, 18.0
18.42000, 16.0
18.49000, 11.0
18.56000, 16.0
18.63000, 17.0
18.70000, 20.0
18.77000, 6.0
18.84000, 10.0
18.91000, 8.0
18.98000, 6.0
19.05000, 5.0
19.12000, 9.0
19.19000, 7.0
19.26000, 6.0
19.33000, 2.0
19.40000, 7.0
19.47000, 6.0
19.54000, 6.0
19.61000, 5.0
19.68000, 4.0
19.75000, 8.0
19.82000, 4.0
19.89000, 4.0
19.96000, 2.0
20.03000, 4.0
20.10000, 2.0
20.17000, 1.0
20.24000, 4.0
20.27500, 3.0
#ENDOFDATA   :