Folder: OSImageAnalysis/dtsa2/detectors/2-FEI Sirion (part 2)

File: Oxford p4 10eV 2K.txt
#FORMAT      : EMSA/MAS Spectral Data File
#VERSION     : 1.0
#TITLE       : 2048-10eV-s5-p4
#DATE        : 29-MAY-2014
#TIME        : 15:10
#OWNER       :
#NPOINTS     : 2048.0
#NCOLUMNS    : 1.0
#XUNITS      : keV
#YUNITS      : counts
#DATATYPE    : XY
#XPERCHAN    : 0.01
#OFFSET      : -0.2
#SIGNALTYPE  : EDS
#CHOFFSET    : 20.0
#LIVETIME    : 100.376
#REALTIME    : 137.811
#BEAMKV      : 20.0
#PROBECUR    : 0.0
#MAGCAM      : 3500.0
#XTILTSTGE   : 0.0
#AZIMANGLE   : 0.0
#ELEVANGLE   : 35.0
#XPOSITION mm: -3.1130
#YPOSITION mm: 1.3240
#ZPOSITION mm: 5.0130
##OXINSTPT   : 4
##OXINSTSTROB: 48.11
##OXINSTELEMS: 6,25,13,14
##OXINSTLABEL: 6, 0.277, C
##OXINSTLABEL: 25, 5.899, Mn
##OXINSTLABEL: 25, 6.490, Mn
##OXINSTLABEL: 25, 0.636, Mn
##OXINSTLABEL: 25, 0.567, Mn
##OXINSTLABEL: 13, 1.487, Al
##OXINSTLABEL: 14, 1.740, Si
#SPECTRUM    : Spectral Data Starts Here
-0.20000, 0.0
-0.13000, 0.0
-0.06000, 8.0
0.01000, 3089.0
0.08000, 1068.0
0.15000, 610.0
0.22000, 1225.0
0.29000, 3930.0
0.36000, 1176.0
0.43000, 2048.0
0.50000, 7259.0
0.57000, 22732.0
0.64000, 45269.0
0.71000, 2439.0
0.78000, 881.0
0.85000, 975.0
0.92000, 1115.0
0.99000, 1291.0
1.06000, 1455.0
1.13000, 1656.0
1.20000, 1861.0
1.27000, 2060.0
1.34000, 2169.0
1.41000, 2282.0
1.48000, 2861.0
1.55000, 2542.0
1.62000, 2515.0
1.69000, 2687.0
1.76000, 2763.0
1.83000, 2643.0
1.90000, 2632.0
1.97000, 2711.0
2.04000, 2751.0
2.11000, 2780.0
2.18000, 2713.0
2.25000, 2840.0
2.32000, 2845.0
2.39000, 2805.0
2.46000, 2728.0
2.53000, 2771.0
2.60000, 2691.0
2.67000, 2762.0
2.74000, 2705.0
2.81000, 2643.0
2.88000, 2634.0
2.95000, 2552.0
3.02000, 2544.0
3.09000, 2506.0
3.16000, 2440.0
3.23000, 2416.0
3.30000, 2385.0
3.37000, 2318.0
3.44000, 2270.0
3.51000, 2313.0
3.58000, 2260.0
3.65000, 2177.0
3.72000, 2133.0
3.79000, 2125.0
3.86000, 2088.0
3.93000, 2011.0
4.00000, 2005.0
4.07000, 2081.0
4.14000, 2446.0
4.21000, 2141.0
4.28000, 1860.0
4.35000, 1816.0
4.42000, 1765.0
4.49000, 1718.0
4.56000, 1721.0
4.63000, 1666.0
4.70000, 1688.0
4.77000, 1694.0
4.84000, 1598.0
4.91000, 1607.0
4.98000, 1544.0
5.05000, 1540.0
5.12000, 1471.0
5.19000, 1417.0
5.26000, 1471.0
5.33000, 1386.0
5.40000, 1376.0
5.47000, 1464.0
5.54000, 1380.0
5.61000, 1491.0
5.68000, 1648.0
5.75000, 5130.0
5.82000, 47705.0
5.89000, 124300.0
5.96000, 65904.0
6.03000, 8160.0
6.10000, 1543.0
6.17000, 1383.0
6.24000, 1418.0
6.31000, 1668.0
6.38000, 4286.0
6.45000, 13819.0
6.52000, 14904.0
6.59000, 4627.0
6.66000, 1124.0
6.73000, 873.0
6.80000, 829.0
6.87000, 801.0
6.94000, 797.0
7.01000, 824.0
7.08000, 833.0
7.15000, 820.0
7.22000, 801.0
7.29000, 763.0
7.36000, 729.0
7.43000, 756.0
7.50000, 773.0
7.57000, 809.0
7.64000, 776.0
7.71000, 744.0
7.78000, 738.0
7.85000, 761.0
7.92000, 752.0
7.99000, 745.0
8.06000, 704.0
8.13000, 711.0
8.20000, 716.0
8.27000, 708.0
8.34000, 680.0
8.41000, 706.0
8.48000, 685.0
8.55000, 704.0
8.62000, 654.0
8.69000, 655.0
8.76000, 661.0
8.83000, 657.0
8.90000, 639.0
8.97000, 636.0
9.04000, 656.0
9.11000, 605.0
9.18000, 557.0
9.25000, 573.0
9.32000, 624.0
9.39000, 604.0
9.46000, 530.0
9.53000, 587.0
9.60000, 507.0
9.67000, 538.0
9.74000, 542.0
9.81000, 545.0
9.88000, 507.0
9.95000, 470.0
10.02000, 546.0
10.09000, 523.0
10.16000, 491.0
10.23000, 479.0
10.30000, 506.0
10.37000, 457.0
10.44000, 468.0
10.51000, 475.0
10.58000, 483.0
10.65000, 440.0
10.72000, 441.0
10.79000, 404.0
10.86000, 441.0
10.93000, 415.0
11.00000, 379.0
11.07000, 394.0
11.14000, 425.0
11.21000, 401.0
11.28000, 380.0
11.35000, 383.0
11.42000, 379.0
11.49000, 394.0
11.56000, 373.0
11.63000, 450.0
11.70000, 669.0
11.77000, 1055.0
11.84000, 947.0
11.91000, 571.0
11.98000, 373.0
12.05000, 324.0
12.12000, 324.0
12.19000, 307.0
12.26000, 357.0
12.33000, 424.0
12.40000, 483.0
12.47000, 396.0
12.54000, 317.0
12.61000, 277.0
12.68000, 268.0
12.75000, 257.0
12.82000, 261.0
12.89000, 248.0
12.96000, 259.0
13.03000, 255.0
13.10000, 252.0
13.17000, 231.0
13.24000, 219.0
13.31000, 239.0
13.38000, 226.0
13.45000, 220.0
13.52000, 205.0
13.59000, 222.0
13.66000, 238.0
13.73000, 227.0
13.80000, 210.0
13.87000, 201.0
13.94000, 205.0
14.01000, 164.0
14.08000, 187.0
14.15000, 181.0
14.22000, 170.0
14.29000, 177.0
14.36000, 173.0
14.43000, 172.0
14.50000, 139.0
14.57000, 163.0
14.64000, 133.0
14.71000, 128.0
14.78000, 131.0
14.85000, 132.0
14.92000, 131.0
14.99000, 150.0
15.06000, 129.0
15.13000, 129.0
15.20000, 108.0
15.27000, 130.0
15.34000, 110.0
15.41000, 115.0
15.48000, 114.0
15.55000, 101.0
15.62000, 109.0
15.69000, 101.0
15.76000, 102.0
15.83000, 98.0
15.90000, 97.0
15.97000, 96.0
16.04000, 89.0
16.11000, 83.0
16.18000, 94.0
16.25000, 88.0
16.32000, 78.0
16.39000, 72.0
16.46000, 84.0
16.53000, 75.0
16.60000, 73.0
16.67000, 77.0
16.74000, 73.0
16.81000, 78.0
16.88000, 66.0
16.95000, 50.0
17.02000, 56.0
17.09000, 59.0
17.16000, 60.0
17.23000, 45.0
17.30000, 49.0
17.37000, 46.0
17.44000, 51.0
17.51000, 40.0
17.58000, 52.0
17.65000, 45.0
17.72000, 49.0
17.79000, 43.0
17.86000, 38.0
17.93000, 32.0
18.00000, 39.0
18.07000, 35.0
18.14000, 38.0
18.21000, 39.0
18.28000, 37.0
18.35000, 42.0
18.42000, 25.0
18.49000, 29.0
18.56000, 30.0
18.63000, 26.0
18.70000, 21.0
18.77000, 24.0
18.84000, 29.0
18.91000, 21.0
18.98000, 24.0
19.05000, 13.0
19.12000, 16.0
19.19000, 16.0
19.26000, 8.0
19.33000, 10.0
19.40000, 15.0
19.47000, 12.0
19.54000, 12.0
19.61000, 18.0
19.68000, 9.0
19.75000, 9.0
19.82000, 10.0
19.89000, 4.0
19.96000, 5.0
20.03000, 4.0
20.10000, 6.0
20.17000, 9.0
20.24000, 4.0
20.27000, 5.0
#ENDOFDATA   :

File: Oxford p6 05eV 2K.txt
#FORMAT      : EMSA/MAS Spectral Data File
#VERSION     : 1.0
#TITLE       : 2048-5eV-s4-p6
#DATE        : 29-MAY-2014
#TIME        : 15:02
#OWNER       :
#NPOINTS     : 2048.0
#NCOLUMNS    : 1.0
#XUNITS      : keV
#YUNITS      : counts
#DATATYPE    : XY
#XPERCHAN    : 0.005
#OFFSET      : -0.1
#SIGNALTYPE  : EDS
#CHOFFSET    : 20.0
#LIVETIME    : 100.45
#REALTIME    : 140.939
#BEAMKV      : 20.0
#PROBECUR    : 0.0
#MAGCAM      : 3500.0
#XTILTSTGE   : 0.0
#AZIMANGLE   : 0.0
#ELEVANGLE   : 35.0
#XPOSITION mm: -3.1130
#YPOSITION mm: 1.3240
#ZPOSITION mm: 5.0130
##OXINSTPT   : 6
##OXINSTSTROB: 34.44
##OXINSTELEMS: 25,6,13
##OXINSTLABEL: 25, 5.899, Mn
##OXINSTLABEL: 25, 6.490, Mn
##OXINSTLABEL: 25, 0.636, Mn
##OXINSTLABEL: 25, 0.567, Mn
##OXINSTLABEL: 6, 0.277, C
##OXINSTLABEL: 13, 1.487, Al
#SPECTRUM    : Spectral Data Starts Here
-0.10000, 0.0
-0.06500, 1.0
-0.03000, 286.0
0.00500, 4016.0
0.04000, 613.0
0.07500, 57.0
0.11000, 64.0
0.14500, 73.0
0.18000, 82.0
0.21500, 119.0
0.25000, 364.0
0.28500, 552.0
0.32000, 121.0
0.35500, 138.0
0.39000, 167.0
0.42500, 214.0
0.46000, 293.0
0.49500, 626.0
0.53000, 1930.0
0.56500, 2882.0
0.60000, 2578.0
0.63500, 6242.0
0.67000, 2126.0
0.70500, 216.0
0.74000, 127.0
0.77500, 99.0
0.81000, 106.0
0.84500, 115.0
0.88000, 125.0
0.91500, 115.0
0.95000, 144.0
0.98500, 140.0
1.02000, 148.0
1.05500, 164.0
1.09000, 176.0
1.12500, 185.0
1.16000, 200.0
1.19500, 218.0
1.23000, 233.0
1.26500, 233.0
1.30000, 221.0
1.33500, 236.0
1.37000, 253.0
1.40500, 246.0
1.44000, 276.0
1.47500, 314.0
1.51000, 329.0
1.54500, 320.0
1.58000, 273.0
1.61500, 281.0
1.65000, 294.0
1.68500, 299.0
1.72000, 299.0
1.75500, 311.0
1.79000, 302.0
1.82500, 300.0
1.86000, 300.0
1.89500, 285.0
1.93000, 300.0
1.96500, 324.0
2.00000, 313.0
2.03500, 305.0
2.07000, 311.0
2.10500, 308.0
2.14000, 324.0
2.17500, 329.0
2.21000, 332.0
2.24500, 292.0
2.28000, 318.0
2.31500, 342.0
2.35000, 314.0
2.38500, 320.0
2.42000, 334.0
2.45500, 320.0
2.49000, 326.0
2.52500, 303.0
2.56000, 341.0
2.59500, 321.0
2.63000, 287.0
2.66500, 321.0
2.70000, 302.0
2.73500, 296.0
2.77000, 302.0
2.80500, 288.0
2.84000, 286.0
2.87500, 316.0
2.91000, 305.0
2.94500, 289.0
2.98000, 312.0
3.01500, 289.0
3.05000, 289.0
3.08500, 292.0
3.12000, 281.0
3.15500, 301.0
3.19000, 296.0
3.22500, 272.0
3.26000, 276.0
3.29500, 283.0
3.33000, 291.0
3.36500, 266.0
3.40000, 260.0
3.43500, 237.0
3.47000, 284.0
3.50500, 285.0
3.54000, 236.0
3.57500, 244.0
3.61000, 267.0
3.64500, 221.0
3.68000, 262.0
3.71500, 237.0
3.75000, 244.0
3.78500, 224.0
3.82000, 226.0
3.85500, 246.0
3.89000, 234.0
3.92500, 235.0
3.96000, 224.0
3.99500, 247.0
4.03000, 225.0
4.06500, 225.0
4.10000, 237.0
4.13500, 271.0
4.17000, 290.0
4.20500, 225.0
4.24000, 219.0
4.27500, 220.0
4.31000, 172.0
4.34500, 188.0
4.38000, 218.0
4.41500, 158.0
4.45000, 210.0
4.48500, 195.0
4.52000, 187.0
4.55500, 196.0
4.59000, 194.0
4.62500, 196.0
4.66000, 168.0
4.69500, 181.0
4.73000, 165.0
4.76500, 180.0
4.80000, 170.0
4.83500, 204.0
4.87000, 179.0
4.90500, 167.0
4.94000, 190.0
4.97500, 180.0
5.01000, 180.0
5.04500, 180.0
5.08000, 191.0
5.11500, 174.0
5.15000, 158.0
5.18500, 157.0
5.22000, 178.0
5.25500, 161.0
5.29000, 155.0
5.32500, 163.0
5.36000, 164.0
5.39500, 149.0
5.43000, 169.0
5.46500, 167.0
5.50000, 150.0
5.53500, 150.0
5.57000, 179.0
5.60500, 156.0
5.64000, 187.0
5.67500, 197.0
5.71000, 208.0
5.74500, 443.0
5.78000, 1432.0
5.81500, 4555.0
5.85000, 10062.0
5.88500, 14547.0
5.92000, 13675.0
5.95500, 8445.0
5.99000, 3336.0
6.02500, 977.0
6.06000, 292.0
6.09500, 162.0
6.13000, 154.0
6.16500, 151.0
6.20000, 155.0
6.23500, 142.0
6.27000, 145.0
6.30500, 171.0
6.34000, 240.0
6.37500, 414.0
6.41000, 819.0
6.44500, 1536.0
6.48000, 1902.0
6.51500, 1792.0
6.55000, 1164.0
6.58500, 564.0
6.62000, 246.0
6.65500, 111.0
6.69000, 93.0
6.72500, 95.0
6.76000, 96.0
6.79500, 86.0
6.83000, 94.0
6.86500, 84.0
6.90000, 89.0
6.93500, 88.0
6.97000, 94.0
7.00500, 92.0
7.04000, 94.0
7.07500, 95.0
7.11000, 83.0
7.14500, 75.0
7.18000, 88.0
7.21500, 93.0
7.25000, 91.0
7.28500, 84.0
7.32000, 76.0
7.35500, 81.0
7.39000, 97.0
7.42500, 84.0
7.46000, 87.0
7.49500, 80.0
7.53000, 94.0
7.56500, 79.0
7.60000, 86.0
7.63500, 82.0
7.67000, 72.0
7.70500, 84.0
7.74000, 79.0
7.77500, 79.0
7.81000, 81.0
7.84500, 81.0
7.88000, 57.0
7.91500, 87.0
7.95000, 69.0
7.98500, 84.0
8.02000, 69.0
8.05500, 73.0
8.09000, 77.0
8.12500, 91.0
8.16000, 89.0
8.19500, 87.0
8.23000, 72.0
8.26500, 81.0
8.30000, 65.0
8.33500, 85.0
8.37000, 67.0
8.40500, 68.0
8.44000, 69.0
8.47500, 75.0
8.51000, 79.0
8.54500, 68.0
8.58000, 73.0
8.61500, 69.0
8.65000, 77.0
8.68500, 71.0
8.72000, 69.0
8.75500, 64.0
8.79000, 66.0
8.82500, 75.0
8.86000, 56.0
8.89500, 64.0
8.93000, 59.0
8.96500, 83.0
9.00000, 64.0
9.03500, 66.0
9.07000, 67.0
9.10500, 67.0
9.14000, 57.0
9.17500, 64.0
9.21000, 59.0
9.24500, 69.0
9.28000, 55.0
9.31500, 58.0
9.35000, 63.0
9.38500, 48.0
9.42000, 60.0
9.45500, 72.0
9.49000, 60.0
9.52500, 68.0
9.56000, 60.0
9.59500, 63.0
9.63000, 65.0
9.66500, 51.0
9.70000, 70.0
9.73500, 51.0
9.77000, 63.0
9.80500, 62.0
9.84000, 59.0
9.87500, 48.0
9.91000, 49.0
9.94500, 48.0
9.98000, 49.0
10.01500, 56.0
10.05000, 52.0
10.08500, 51.0
10.12000, 66.0
10.13500, 42.0
#ENDOFDATA   :

File: Oxford p6 05eV 4K.txt
#FORMAT      : EMSA/MAS Spectral Data File
#VERSION     : 1.0
#TITLE       : 4096-5eV-s4-p6
#DATE        : 29-MAY-2014
#TIME        : 14:56
#OWNER       :
#NPOINTS     : 4096.0
#NCOLUMNS    : 1.0
#XUNITS      : keV
#YUNITS      : counts
#DATATYPE    : XY
#XPERCHAN    : 0.005
#OFFSET      : -0.2
#SIGNALTYPE  : EDS
#CHOFFSET    : 40.0
#LIVETIME    : 100.654
#REALTIME    : 141.284
#BEAMKV      : 20.0
#PROBECUR    : 0.0
#MAGCAM      : 3500.0
#XTILTSTGE   : 0.0
#AZIMANGLE   : 0.0
#ELEVANGLE   : 35.0
#XPOSITION mm: -3.1130
#YPOSITION mm: 1.3240
#ZPOSITION mm: 5.0130
##OXINSTPT   : 6
##OXINSTSTROB: 34.42
##OXINSTELEMS: 25,6,13
##OXINSTLABEL: 25, 5.899, Mn
##OXINSTLABEL: 25, 6.490, Mn
##OXINSTLABEL: 25, 0.636, Mn
##OXINSTLABEL: 25, 0.567, Mn
##OXINSTLABEL: 6, 0.277, C
##OXINSTLABEL: 13, 1.487, Al
#SPECTRUM    : Spectral Data Starts Here
-0.20000, 0.0
-0.13000, 0.0
-0.06000, 1.0
0.01000, 4160.0
0.08000, 60.0
0.15000, 76.0
0.22000, 139.0
0.29000, 490.0
0.36000, 151.0
0.43000, 236.0
0.50000, 778.0
0.57000, 2592.0
0.64000, 6182.0
0.71000, 181.0
0.78000, 88.0
0.85000, 102.0
0.92000, 123.0
0.99000, 148.0
1.06000, 172.0
1.13000, 202.0
1.20000, 209.0
1.27000, 222.0
1.34000, 220.0
1.41000, 253.0
1.48000, 330.0
1.55000, 282.0
1.62000, 273.0
1.69000, 295.0
1.76000, 328.0
1.83000, 317.0
1.90000, 271.0
1.97000, 302.0
2.04000, 294.0
2.11000, 313.0
2.18000, 318.0
2.25000, 306.0
2.32000, 332.0
2.39000, 316.0
2.46000, 314.0
2.53000, 296.0
2.60000, 315.0
2.67000, 313.0
2.74000, 302.0
2.81000, 327.0
2.88000, 315.0
2.95000, 298.0
3.02000, 283.0
3.09000, 295.0
3.16000, 291.0
3.23000, 265.0
3.30000, 262.0
3.37000, 252.0
3.44000, 264.0
3.51000, 269.0
3.58000, 265.0
3.65000, 257.0
3.72000, 243.0
3.79000, 224.0
3.86000, 226.0
3.93000, 234.0
4.00000, 251.0
4.07000, 245.0
4.14000, 298.0
4.21000, 240.0
4.28000, 211.0
4.35000, 206.0
4.42000, 192.0
4.49000, 201.0
4.56000, 190.0
4.63000, 181.0
4.70000, 190.0
4.77000, 175.0
4.84000, 170.0
4.91000, 194.0
4.98000, 183.0
5.05000, 177.0
5.12000, 177.0
5.19000, 189.0
5.26000, 141.0
5.33000, 155.0
5.40000, 149.0
5.47000, 162.0
5.54000, 161.0
5.61000, 176.0
5.68000, 186.0
5.75000, 525.0
5.82000, 5229.0
5.89000, 14743.0
5.96000, 7514.0
6.03000, 844.0
6.10000, 139.0
6.17000, 173.0
6.24000, 164.0
6.31000, 156.0
6.38000, 450.0
6.45000, 1582.0
6.52000, 1715.0
6.59000, 540.0
6.66000, 124.0
6.73000, 104.0
6.80000, 84.0
6.87000, 81.0
6.94000, 69.0
7.01000, 91.0
7.08000, 74.0
7.15000, 84.0
7.22000, 85.0
7.29000, 83.0
7.36000, 83.0
7.43000, 87.0
7.50000, 69.0
7.57000, 80.0
7.64000, 91.0
7.71000, 75.0
7.78000, 84.0
7.85000, 82.0
7.92000, 75.0
7.99000, 85.0
8.06000, 65.0
8.13000, 77.0
8.20000, 74.0
8.27000, 73.0
8.34000, 79.0
8.41000, 53.0
8.48000, 77.0
8.55000, 70.0
8.62000, 74.0
8.69000, 77.0
8.76000, 72.0
8.83000, 67.0
8.90000, 63.0
8.97000, 61.0
9.04000, 61.0
9.11000, 69.0
9.18000, 52.0
9.25000, 70.0
9.32000, 59.0
9.39000, 69.0
9.46000, 55.0
9.53000, 61.0
9.60000, 59.0
9.67000, 64.0
9.74000, 55.0
9.81000, 57.0
9.88000, 43.0
9.95000, 47.0
10.02000, 61.0
10.09000, 62.0
10.16000, 58.0
10.23000, 50.0
10.30000, 40.0
10.37000, 50.0
10.44000, 54.0
10.51000, 50.0
10.58000, 41.0
10.65000, 51.0
10.72000, 50.0
10.79000, 36.0
10.86000, 40.0
10.93000, 42.0
11.00000, 35.0
11.07000, 44.0
11.14000, 33.0
11.21000, 46.0
11.28000, 38.0
11.35000, 33.0
11.42000, 41.0
11.49000, 42.0
11.56000, 29.0
11.63000, 37.0
11.70000, 44.0
11.77000, 67.0
11.84000, 49.0
11.91000, 32.0
11.98000, 38.0
12.05000, 36.0
12.12000, 36.0
12.19000, 27.0
12.26000, 38.0
12.33000, 39.0
12.40000, 49.0
12.47000, 31.0
12.54000, 36.0
12.61000, 37.0
12.68000, 32.0
12.75000, 28.0
12.82000, 26.0
12.89000, 27.0
12.96000, 26.0
13.03000, 41.0
13.10000, 25.0
13.17000, 26.0
13.24000, 21.0
13.31000, 25.0
13.38000, 31.0
13.45000, 29.0
13.52000, 26.0
13.59000, 25.0
13.66000, 28.0
13.73000, 16.0
13.80000, 21.0
13.87000, 20.0
13.94000, 18.0
14.01000, 20.0
14.08000, 20.0
14.15000, 20.0
14.22000, 19.0
14.29000, 22.0
14.36000, 19.0
14.43000, 18.0
14.50000, 15.0
14.57000, 18.0
14.64000, 15.0
14.71000, 20.0
14.78000, 15.0
14.85000, 12.0
14.92000, 18.0
14.99000, 11.0
15.06000, 14.0
15.13000, 9.0
15.20000, 15.0
15.27000, 10.0
15.34000, 14.0
15.41000, 15.0
15.48000, 10.0
15.55000, 12.0
15.62000, 15.0
15.69000, 9.0
15.76000, 9.0
15.83000, 8.0
15.90000, 11.0
15.97000, 14.0
16.04000, 11.0
16.11000, 11.0
16.18000, 9.0
16.25000, 8.0
16.32000, 3.0
16.39000, 10.0
16.46000, 8.0
16.53000, 7.0
16.60000, 7.0
16.67000, 7.0
16.74000, 7.0
16.81000, 5.0
16.88000, 5.0
16.95000, 1.0
17.02000, 6.0
17.09000, 5.0
17.16000, 4.0
17.23000, 9.0
17.30000, 6.0
17.37000, 3.0
17.44000, 5.0
17.51000, 8.0
17.58000, 4.0
17.65000, 5.0
17.72000, 5.0
17.79000, 2.0
17.86000, 3.0
17.93000, 5.0
18.00000, 6.0
18.07000, 2.0
18.14000, 4.0
18.21000, 2.0
18.28000, 3.0
18.35000, 3.0
18.42000, 2.0
18.49000, 3.0
18.56000, 2.0
18.63000, 2.0
18.70000, 4.0
18.77000, 0.0
18.84000, 2.0
18.91000, 3.0
18.98000, 5.0
19.05000, 1.0
19.12000, 2.0
19.19000, 1.0
19.26000, 0.0
19.33000, 1.0
19.40000, 1.0
19.47000, 0.0
19.54000, 1.0
19.61000, 1.0
19.68000, 0.0
19.75000, 1.0
19.82000, 0.0
19.89000, 0.0
19.96000, 0.0
20.03000, 0.0
20.10000, 0.0
20.17000, 0.0
20.24000, 0.0
20.27500, 0.0
#ENDOFDATA   :

File: Oxford p6 10eV 2K.txt
#FORMAT      : EMSA/MAS Spectral Data File
#VERSION     : 1.0
#TITLE       : 2048-10eV-s4-p6
#DATE        : 29-MAY-2014
#TIME        : 14:59
#OWNER       :
#NPOINTS     : 2048.0
#NCOLUMNS    : 1.0
#XUNITS      : keV
#YUNITS      : counts
#DATATYPE    : XY
#XPERCHAN    : 0.01
#OFFSET      : -0.2
#SIGNALTYPE  : EDS
#CHOFFSET    : 20.0
#LIVETIME    : 100.271
#REALTIME    : 141.148
#BEAMKV      : 20.0
#PROBECUR    : 0.0
#MAGCAM      : 3500.0
#XTILTSTGE   : 0.0
#AZIMANGLE   : 0.0
#ELEVANGLE   : 35.0
#XPOSITION mm: -3.1130
#YPOSITION mm: 1.3240
#ZPOSITION mm: 5.0130
##OXINSTPT   : 6
##OXINSTSTROB: 34.46
##OXINSTELEMS: 25,6,13
##OXINSTLABEL: 25, 5.899, Mn
##OXINSTLABEL: 25, 6.490, Mn
##OXINSTLABEL: 25, 0.636, Mn
##OXINSTLABEL: 25, 0.567, Mn
##OXINSTLABEL: 6, 0.277, C
##OXINSTLABEL: 13, 1.487, Al
#SPECTRUM    : Spectral Data Starts Here
-0.20000, 0.0
-0.13000, 0.0
-0.06000, 5.0
0.01000, 7830.0
0.08000, 110.0
0.15000, 144.0
0.22000, 264.0
0.29000, 998.0
0.36000, 265.0
0.43000, 487.0
0.50000, 1442.0
0.57000, 5281.0
0.64000, 12294.0
0.71000, 425.0
0.78000, 182.0
0.85000, 213.0
0.92000, 263.0
0.99000, 277.0
1.06000, 341.0
1.13000, 381.0
1.20000, 452.0
1.27000, 481.0
1.34000, 496.0
1.41000, 549.0
1.48000, 703.0
1.55000, 600.0
1.62000, 530.0
1.69000, 598.0
1.76000, 637.0
1.83000, 595.0
1.90000, 626.0
1.97000, 600.0
2.04000, 631.0
2.11000, 662.0
2.18000, 618.0
2.25000, 629.0
2.32000, 626.0
2.39000, 616.0
2.46000, 638.0
2.53000, 650.0
2.60000, 595.0
2.67000, 623.0
2.74000, 620.0
2.81000, 621.0
2.88000, 538.0
2.95000, 597.0
3.02000, 575.0
3.09000, 542.0
3.16000, 564.0
3.23000, 543.0
3.30000, 553.0
3.37000, 528.0
3.44000, 511.0
3.51000, 508.0
3.58000, 508.0
3.65000, 484.0
3.72000, 491.0
3.79000, 477.0
3.86000, 471.0
3.93000, 464.0
4.00000, 457.0
4.07000, 467.0
4.14000, 544.0
4.21000, 484.0
4.28000, 414.0
4.35000, 400.0
4.42000, 432.0
4.49000, 411.0
4.56000, 397.0
4.63000, 379.0
4.70000, 417.0
4.77000, 383.0
4.84000, 361.0
4.91000, 380.0
4.98000, 348.0
5.05000, 365.0
5.12000, 351.0
5.19000, 335.0
5.26000, 347.0
5.33000, 299.0
5.40000, 330.0
5.47000, 312.0
5.54000, 325.0
5.61000, 343.0
5.68000, 381.0
5.75000, 1023.0
5.82000, 10667.0
5.89000, 29634.0
5.96000, 15092.0
6.03000, 1624.0
6.10000, 321.0
6.17000, 301.0
6.24000, 302.0
6.31000, 369.0
6.38000, 910.0
6.45000, 3228.0
6.52000, 3482.0
6.59000, 951.0
6.66000, 231.0
6.73000, 183.0
6.80000, 164.0
6.87000, 176.0
6.94000, 182.0
7.01000, 180.0
7.08000, 148.0
7.15000, 169.0
7.22000, 179.0
7.29000, 193.0
7.36000, 188.0
7.43000, 148.0
7.50000, 169.0
7.57000, 171.0
7.64000, 174.0
7.71000, 171.0
7.78000, 168.0
7.85000, 159.0
7.92000, 157.0
7.99000, 154.0
8.06000, 154.0
8.13000, 132.0
8.20000, 143.0
8.27000, 162.0
8.34000, 143.0
8.41000, 128.0
8.48000, 129.0
8.55000, 138.0
8.62000, 135.0
8.69000, 140.0
8.76000, 131.0
8.83000, 152.0
8.90000, 136.0
8.97000, 131.0
9.04000, 136.0
9.11000, 126.0
9.18000, 125.0
9.25000, 113.0
9.32000, 133.0
9.39000, 119.0
9.46000, 114.0
9.53000, 124.0
9.60000, 108.0
9.67000, 118.0
9.74000, 125.0
9.81000, 108.0
9.88000, 122.0
9.95000, 116.0
10.02000, 103.0
10.09000, 102.0
10.16000, 112.0
10.23000, 123.0
10.30000, 95.0
10.37000, 106.0
10.44000, 105.0
10.51000, 110.0
10.58000, 106.0
10.65000, 94.0
10.72000, 100.0
10.79000, 94.0
10.86000, 88.0
10.93000, 99.0
11.00000, 83.0
11.07000, 94.0
11.14000, 91.0
11.21000, 90.0
11.28000, 74.0
11.35000, 75.0
11.42000, 76.0
11.49000, 73.0
11.56000, 68.0
11.63000, 77.0
11.70000, 91.0
11.77000, 116.0
11.84000, 107.0
11.91000, 81.0
11.98000, 79.0
12.05000, 69.0
12.12000, 61.0
12.19000, 72.0
12.26000, 72.0
12.33000, 75.0
12.40000, 69.0
12.47000, 57.0
12.54000, 59.0
12.61000, 54.0
12.68000, 58.0
12.75000, 58.0
12.82000, 60.0
12.89000, 58.0
12.96000, 65.0
13.03000, 55.0
13.10000, 48.0
13.17000, 44.0
13.24000, 43.0
13.31000, 54.0
13.38000, 46.0
13.45000, 41.0
13.52000, 49.0
13.59000, 47.0
13.66000, 45.0
13.73000, 43.0
13.80000, 39.0
13.87000, 43.0
13.94000, 35.0
14.01000, 29.0
14.08000, 45.0
14.15000, 32.0
14.22000, 34.0
14.29000, 26.0
14.36000, 37.0
14.43000, 32.0
14.50000, 24.0
14.57000, 33.0
14.64000, 35.0
14.71000, 32.0
14.78000, 32.0
14.85000, 27.0
14.92000, 31.0
14.99000, 31.0
15.06000, 28.0
15.13000, 26.0
15.20000, 24.0
15.27000, 19.0
15.34000, 18.0
15.41000, 28.0
15.48000, 27.0
15.55000, 28.0
15.62000, 22.0
15.69000, 19.0
15.76000, 24.0
15.83000, 27.0
15.90000, 23.0
15.97000, 15.0
16.04000, 18.0
16.11000, 16.0
16.18000, 14.0
16.25000, 12.0
16.32000, 20.0
16.39000, 13.0
16.46000, 17.0
16.53000, 16.0
16.60000, 17.0
16.67000, 19.0
16.74000, 13.0
16.81000, 16.0
16.88000, 13.0
16.95000, 12.0
17.02000, 12.0
17.09000, 7.0
17.16000, 11.0
17.23000, 16.0
17.30000, 10.0
17.37000, 12.0
17.44000, 13.0
17.51000, 7.0
17.58000, 15.0
17.65000, 8.0
17.72000, 9.0
17.79000, 7.0
17.86000, 5.0
17.93000, 6.0
18.00000, 10.0
18.07000, 5.0
18.14000, 4.0
18.21000, 5.0
18.28000, 5.0
18.35000, 5.0
18.42000, 6.0
18.49000, 4.0
18.56000, 2.0
18.63000, 7.0
18.70000, 4.0
18.77000, 4.0
18.84000, 3.0
18.91000, 3.0
18.98000, 5.0
19.05000, 5.0
19.12000, 1.0
19.19000, 3.0
19.26000, 4.0
19.33000, 4.0
19.40000, 4.0
19.47000, 1.0
19.54000, 2.0
19.61000, 1.0
19.68000, 0.0
19.75000, 0.0
19.82000, 2.0
19.89000, 0.0
19.96000, 1.0
20.03000, 0.0
20.10000, 0.0
20.17000, 1.0
20.24000, 0.0
20.27000, 0.0
#ENDOFDATA   :